"trial_id","trial_type","trial_index","time_elapsed","internal_node_id","subject_id","study_id","session_id","success","timeout","failed_images","failed_audio","failed_video","task","condition","rt","time","width","height","webaudio","browser","browser_version","mobile","os","fullscreen","vsync_rate","webcam","microphone","stimulus","response","slider_start","labels","choices","question_order","accuracy"
"pavlovia_init","pavlovia","0","1276","0.0-0.0","5e6de0ab9e71d4392921839b","652d46c8909a0ef52332ec58","6530a9c4395afa49d08f88a6","","","","","","","","","","","","","","","","","","","","","","","","","","",""
"","preload","1","3052","0.0-1.0","5e6de0ab9e71d4392921839b","652d46c8909a0ef52332ec58","6530a9c4395afa49d08f88a6","true","false","[]","[]","[]","Preload","Forecast","","","","","","","","","","","","","","","","","","","",""
"","fullscreen","2","5113","0.0-2.0","5e6de0ab9e71d4392921839b","652d46c8909a0ef52332ec58","6530a9c4395afa49d08f88a6","true","","","","","Fullscreen","","1051","0:0:57","","","","","","","","","","","","","","","","","",""
"","browser-check","3","6116","0.0-3.0","5e6de0ab9e71d4392921839b","652d46c8909a0ef52332ec58","6530a9c4395afa49d08f88a6","","","","","","Browser_Check","","","","1641","924","true","chrome","118.0.0","false","Windows 10","true","60.03","false","true","","","","","","",""
"","html-keyboard-response","4","14387","0.0-4.0","5e6de0ab9e71d4392921839b","652d46c8909a0ef52332ec58","6530a9c4395afa49d08f88a6","","","","","","Instruction","","8271","","","","","","","","","","","","","[""<p style=\""font-size: 36px; width: 1200px; line-height: 40px;\"">During this experiment, you will watch a set of movie clips. You will also answer questions about your experience after watching each clip. <br><br><br> <strong><i>Please be aware</i> that these movie clips are sourced from horror films and may contain mature language, gore, violence, mutilation, and/or harm to oneself or others.</strong> <br><br><br> If you are not comfortable with continuing, please exit this experiment now and \""return\"" your participation on Prolific. <br><br><br><br> Otherwise, please press the <strong>SPACE BAR</strong> to continue</p>""]"," ","","","","",""
"","image-button-response","5","27707","0.0-5.0","5e6de0ab9e71d4392921839b","652d46c8909a0ef52332ec58","6530a9c4395afa49d08f88a6","","","","","","Consent","","13318","","","","","","","","","","","","","components/consent/consent.png","0","","","","",""
"","html-keyboard-response","6","29589","0.0-6.0","5e6de0ab9e71d4392921839b","652d46c8909a0ef52332ec58","6530a9c4395afa49d08f88a6","","","","","","Instr_Task","","1882","","","","","","","","","","","","","<p style=""font-size: 36px; width: 1200px; line-height: 40px;"">Thank you for agreeing to participate in this experiment! <br><br><br><br> Please press the <strong>SPACE BAR</strong> to continue</p>"," ","","","","",""
"","html-keyboard-response","7","33391","0.0-7.0","5e6de0ab9e71d4392921839b","652d46c8909a0ef52332ec58","6530a9c4395afa49d08f88a6","","","","","","Instr_Task","","3801","","","","","","","","","","","","","<p style=""font-size: 36px; width: 1200px; line-height: 40px;"">Before we begin, please be sure that you are in a good space to complete the experiment. This space should be: <br><br><br><br> <strong>Comfortable <br><br> Distraction-free <br><br> Available for the next 20 minutes</strong> <br><br><br><br><br> Please press the <strong>SPACE BAR</strong> to continue</p>"," ","","","","",""
"","html-keyboard-response","8","39239","0.0-8.0","5e6de0ab9e71d4392921839b","652d46c8909a0ef52332ec58","6530a9c4395afa49d08f88a6","","","","","","Instr_Task","","5847","","","","","","","","","","","","","<p style=""font-size: 36px; width: 1200px; line-height: 40px;""><strong>Please give your full attention to the experiment. This includes:</strong> <br><br><br><br> Closing or minimizing other programs on your computer <br><br> Silencing your phone or placing it somewhere it will not be distracting <br><br> Testing that your audio is working and set to a comfortable volume that you can clearly hear <br><br> Not completing this experiment with others present <br><br><br><br><br> Please press the <strong>SPACE BAR</strong> to continue</p>"," ","","","","",""
"","html-keyboard-response","9","49566","0.0-9.0","5e6de0ab9e71d4392921839b","652d46c8909a0ef52332ec58","6530a9c4395afa49d08f88a6","","","","","","Instr_Task","","10327","","","","","","","","","","","","","<p style=""font-size: 36px; width: 1200px; line-height: 40px;"">During this experiment, you will watch four short clips from horror movies. These clips may elicit some negative or unwanted emotional reactions. <br><br><br> <strong> Please watch and react to these clips as you naturally would</strong>. Before and after every clip, you will record the intensity of your negative emotions. You will also answer questions regarding your thoughts, behaviors, or experiences after watching all of the clips. <br><br><br><br> Please press the <strong>SPACE BAR</strong> to continue</p>"," ","","","","",""
"","html-keyboard-response","10","50851","0.0-10.0","5e6de0ab9e71d4392921839b","652d46c8909a0ef52332ec58","6530a9c4395afa49d08f88a6","","","","","","Instr_ExpStart","","1285","","","","","","","","","","","","","[""<p style=\""font-size: 36px; width: 1200px; line-height: 40px;\"">The experiment will now start! <br><br><br><br> Please press the <strong>SPACE BAR</strong> to continue</p>""]"," ","","","","",""
"","browser-check","11","51845","0.0-11.0","5e6de0ab9e71d4392921839b","652d46c8909a0ef52332ec58","6530a9c4395afa49d08f88a6","","","","","","Browser_Check","","","","1641","924","true","chrome","118.0.0","false","Windows 10","true","60.37","false","true","","","","","","",""
"","html-keyboard-response","12","54397","0.0-12.0","5e6de0ab9e71d4392921839b","652d46c8909a0ef52332ec58","6530a9c4395afa49d08f88a6","","","","","","Instr_Reminder","","2551","","","","","","","","","","","","","[""<p style=\""font-size: 36px; width: 1200px; line-height: 40px;\"">You will now watch one of the clips. <br><br><br> As a reminder, watch and react to this video <strong>as you naturally would</strong>.<br><br><br><br> Please press the <strong>SPACE BAR</strong> to continue.</p>""]"," ","","","","",""
"","html-slider-response","13","68166","0.0-13.0","5e6de0ab9e71d4392921839b","652d46c8909a0ef52332ec58","6530a9c4395afa49d08f88a6","","","","","","Intensity_Baseline","","13770","","","","","","","","","","","","","[""<p style=\""font-size: 36px; line-height: 40px;\"">How <strong>intense</strong> are the negative emotions that you feel <strong>before</strong> starting this clip?</p>""]","5","50","[""<p style=\""font-size: 26px; line-height: 30px;\"">Extremely<br>Intense</p>"",""<p style=\""font-size: 26px; line-height: 30px;\"">Not at all<br>Intense</p>""]","","",""
"","video-keyboard-response","14","190022","0.0-14.0","5e6de0ab9e71d4392921839b","652d46c8909a0ef52332ec58","6530a9c4395afa49d08f88a6","","","","","","Stimulus","","null","","","","","","","","","","","","","[""components/stim/ARF1665.mp4""]","null","","","","",""
"","html-slider-response","15","224167","0.0-15.0","5e6de0ab9e71d4392921839b","652d46c8909a0ef52332ec58","6530a9c4395afa49d08f88a6","","","","","","Intensity_Video","","34144","","","","","","","","","","","","","[""<p style=\""font-size: 36px; line-height: 40px;\"">How <strong>intense</strong> were the negative emotions that you felt <strong>while</strong> watching this clip?</p>""]","20","50","[""<p style=\""font-size: 26px; line-height: 30px;\"">Extremely<br>Intense</p>"",""<p style=\""font-size: 26px; line-height: 30px;\"">Not at all<br>Intense</p>""]","","",""
"","browser-check","16","225154","0.0-16.0","5e6de0ab9e71d4392921839b","652d46c8909a0ef52332ec58","6530a9c4395afa49d08f88a6","","","","","","Browser_Check","","","","1641","924","true","chrome","118.0.0","false","Windows 10","true","60.85","false","true","","","","","","",""
"","html-keyboard-response","17","228225","0.0-17.0","5e6de0ab9e71d4392921839b","652d46c8909a0ef52332ec58","6530a9c4395afa49d08f88a6","","","","","","Instr_Reminder","","3071","","","","","","","","","","","","","[""<p style=\""font-size: 36px; width: 1200px; line-height: 40px;\"">You will now watch another one of the clips. <br><br><br> As a reminder, watch and react to this video <strong>as you naturally would</strong>.<br><br><br><br> Please press the <strong>SPACE BAR</strong> to continue.</p>""]"," ","","","","",""
"","html-slider-response","18","239030","0.0-18.0","5e6de0ab9e71d4392921839b","652d46c8909a0ef52332ec58","6530a9c4395afa49d08f88a6","","","","","","Intensity_Baseline","","10804","","","","","","","","","","","","","[""<p style=\""font-size: 36px; line-height: 40px;\"">How <strong>intense</strong> are the negative emotions that you feel <strong>before</strong> starting this clip?</p>""]","10","50","[""<p style=\""font-size: 26px; line-height: 30px;\"">Extremely<br>Intense</p>"",""<p style=\""font-size: 26px; line-height: 30px;\"">Not at all<br>Intense</p>""]","","",""
"","video-keyboard-response","19","360141","0.0-19.0","5e6de0ab9e71d4392921839b","652d46c8909a0ef52332ec58","6530a9c4395afa49d08f88a6","","","","","","Stimulus","","null","","","","","","","","","","","","","[""components/stim/FGV3524.mp4""]","null","","","","",""
"","html-slider-response","20","371942","0.0-20.0","5e6de0ab9e71d4392921839b","652d46c8909a0ef52332ec58","6530a9c4395afa49d08f88a6","","","","","","Intensity_Video","","11800","","","","","","","","","","","","","[""<p style=\""font-size: 36px; line-height: 40px;\"">How <strong>intense</strong> were the negative emotions that you felt <strong>while</strong> watching this clip?</p>""]","15","50","[""<p style=\""font-size: 26px; line-height: 30px;\"">Extremely<br>Intense</p>"",""<p style=\""font-size: 26px; line-height: 30px;\"">Not at all<br>Intense</p>""]","","",""
"","browser-check","21","372936","0.0-21.0","5e6de0ab9e71d4392921839b","652d46c8909a0ef52332ec58","6530a9c4395afa49d08f88a6","","","","","","Browser_Check","","","","1641","924","true","chrome","118.0.0","false","Windows 10","true","60.39","false","true","","","","","","",""
"","html-keyboard-response","22","375197","0.0-22.0","5e6de0ab9e71d4392921839b","652d46c8909a0ef52332ec58","6530a9c4395afa49d08f88a6","","","","","","Instr_Reminder","","2260","","","","","","","","","","","","","[""<p style=\""font-size: 36px; width: 1200px; line-height: 40px;\"">You will now watch another one of the clips. <br><br><br> As a reminder, watch and react to this video <strong>as you naturally would</strong>.<br><br><br><br> Please press the <strong>SPACE BAR</strong> to continue.</p>""]"," ","","","","",""
"","html-slider-response","23","383728","0.0-23.0","5e6de0ab9e71d4392921839b","652d46c8909a0ef52332ec58","6530a9c4395afa49d08f88a6","","","","","","Intensity_Baseline","","8531","","","","","","","","","","","","","[""<p style=\""font-size: 36px; line-height: 40px;\"">How <strong>intense</strong> are the negative emotions that you feel <strong>before</strong> starting this clip?</p>""]","17","50","[""<p style=\""font-size: 26px; line-height: 30px;\"">Extremely<br>Intense</p>"",""<p style=\""font-size: 26px; line-height: 30px;\"">Not at all<br>Intense</p>""]","","",""
"","video-keyboard-response","24","504481","0.0-24.0","5e6de0ab9e71d4392921839b","652d46c8909a0ef52332ec58","6530a9c4395afa49d08f88a6","","","","","","Stimulus","","null","","","","","","","","","","","","","[""components/stim/HIU8424.mp4""]","null","","","","",""
"","html-slider-response","25","520506","0.0-25.0","5e6de0ab9e71d4392921839b","652d46c8909a0ef52332ec58","6530a9c4395afa49d08f88a6","","","","","","Intensity_Video","","16024","","","","","","","","","","","","","[""<p style=\""font-size: 36px; line-height: 40px;\"">How <strong>intense</strong> were the negative emotions that you felt <strong>while</strong> watching this clip?</p>""]","45","50","[""<p style=\""font-size: 26px; line-height: 30px;\"">Extremely<br>Intense</p>"",""<p style=\""font-size: 26px; line-height: 30px;\"">Not at all<br>Intense</p>""]","","",""
"","browser-check","26","521503","0.0-26.0","5e6de0ab9e71d4392921839b","652d46c8909a0ef52332ec58","6530a9c4395afa49d08f88a6","","","","","","Browser_Check","","","","1641","924","true","chrome","118.0.0","false","Windows 10","true","60.22","false","true","","","","","","",""
"","html-keyboard-response","27","525140","0.0-27.0","5e6de0ab9e71d4392921839b","652d46c8909a0ef52332ec58","6530a9c4395afa49d08f88a6","","","","","","Instr_Reminder","","3637","","","","","","","","","","","","","[""<p style=\""font-size: 36px; width: 1200px; line-height: 40px;\"">You will now watch another one of the clips. <br><br><br> As a reminder, watch and react to this video <strong>as you naturally would</strong>.<br><br><br><br> Please press the <strong>SPACE BAR</strong> to continue.</p>""]"," ","","","","",""
"","html-slider-response","28","534046","0.0-28.0","5e6de0ab9e71d4392921839b","652d46c8909a0ef52332ec58","6530a9c4395afa49d08f88a6","","","","","","Intensity_Baseline","","8906","","","","","","","","","","","","","[""<p style=\""font-size: 36px; line-height: 40px;\"">How <strong>intense</strong> are the negative emotions that you feel <strong>before</strong> starting this clip?</p>""]","25","50","[""<p style=\""font-size: 26px; line-height: 30px;\"">Extremely<br>Intense</p>"",""<p style=\""font-size: 26px; line-height: 30px;\"">Not at all<br>Intense</p>""]","","",""
"","video-keyboard-response","29","654682","0.0-29.0","5e6de0ab9e71d4392921839b","652d46c8909a0ef52332ec58","6530a9c4395afa49d08f88a6","","","","","","Stimulus","","null","","","","","","","","","","","","","[""components/stim/CNL1892.mp4""]","null","","","","",""
"","html-slider-response","30","673033","0.0-30.0","5e6de0ab9e71d4392921839b","652d46c8909a0ef52332ec58","6530a9c4395afa49d08f88a6","","","","","","Intensity_Video","","18350","","","","","","","","","","","","","[""<p style=\""font-size: 36px; line-height: 40px;\"">How <strong>intense</strong> were the negative emotions that you felt <strong>while</strong> watching this clip?</p>""]","38","50","[""<p style=\""font-size: 26px; line-height: 30px;\"">Extremely<br>Intense</p>"",""<p style=\""font-size: 26px; line-height: 30px;\"">Not at all<br>Intense</p>""]","","",""
"","html-keyboard-response","31","675229","0.0-31.0","5e6de0ab9e71d4392921839b","652d46c8909a0ef52332ec58","6530a9c4395afa49d08f88a6","","","","","","Instr_StratDesc","","2196","","","","","","","","","","","","","<p style=""font-size: 36px; width: 1200px; line-height: 40px;"">You have watched all of the video clips. <br><br><br><br> Please press the <strong>SPACE BAR</strong> to continue</p>"," ","","","","",""
"","html-keyboard-response","32","678548","0.0-32.0","5e6de0ab9e71d4392921839b","652d46c8909a0ef52332ec58","6530a9c4395afa49d08f88a6","","","","","","Instr_StratDesc","","3318","","","","","","","","","","","","","<p style=""font-size: 36px; width: 1200px; line-height: 40px;"">You will now answer questions about emotion regulation during the videos you watched. Please read the directions closely and answer honestly. <br><br><br><br> Please press the <strong>SPACE BAR</strong> to continue</p>"," ","","","","",""
"","html-keyboard-response","33","694461","0.0-33.0","5e6de0ab9e71d4392921839b","652d46c8909a0ef52332ec58","6530a9c4395afa49d08f88a6","","","","","","Instr_StratDesc","","15914","","","","","","","","","","","","","<p style=""font-size: 36px; width: 1200px; line-height: 40px;"">When we experience emotions that we do not want, we often times try to change, or regulate, them. <br><br><br> For example, if a break-up with a significant other upsets us, we can distract ourselves by spending time with friends or we could reframe the event as an opportunity for a new beginning. <br><br><br> Both regulation strategies will likely change our emotional experience, however, we may choose different strategies for different reasons. <br><br><br><br> Please press the <strong>SPACE BAR</strong> to continue</p>"," ","","","","",""
"","html-keyboard-response","34","705721","0.0-34.0","5e6de0ab9e71d4392921839b","652d46c8909a0ef52332ec58","6530a9c4395afa49d08f88a6","","","","","","Instr_StratDesc","","11259","","","","","","","","","","","","","<p style=""font-size: 36px; width: 1200px; line-height: 40px;"">One common emotion regulation strategy is <strong>REAPPRAISAL</strong> <br><br><br><br> Reappraisal involves thinking about the unwanted emotional experience or  object in such a way to change its emotional meaning. <br><br><br> When reappraising, we change the way we think about the experience or object such that it alters the emotional reaction to it. <br><br><br> For example, in the context of a horror movie, you could make an effort to remind yourself that the people are just actors who are using props, rather than actual zombies. <br><br><br><br> Please press the <strong>SPACE BAR</strong> to continue</p>"," ","","","","",""
"","html-keyboard-response","35","713525","0.0-35.0","5e6de0ab9e71d4392921839b","652d46c8909a0ef52332ec58","6530a9c4395afa49d08f88a6","","","","","","Instr_StratDesc","","7804","","","","","","","","","","","","","<p style=""font-size: 36px; width: 1200px; line-height: 40px;"">Another common emotion regulation strategy is <strong>DISTRACTION</strong> <br><br><br><br> Distraction involves looking at or thinking about something besides the unwanted emotional experience or object. <br><br><br> When distracting, we divert our attention to disengage with the experience or object, thus altering our emotional reactions. <br><br><br> For example, in the context of a horror movie, you could choose to look away from the screen or think about what you ate for lunch rather than focusing on the zombies on screen. <br><br><br><br> Please press the <strong>SPACE BAR</strong> to continue</p>"," ","","","","",""
"","image-button-response","36","731135","0.0-36.0","5e6de0ab9e71d4392921839b","652d46c8909a0ef52332ec58","6530a9c4395afa49d08f88a6","","","","","","Strategy_Choice","","17609","","","","","","","","","","","","","components/screenshots/ARF1665.png","1","","","[""<p style=\""font-size: 26px; line-height: 30px;\"">Reappraisal</p></font>"",""<p style=\""font-size: 26px; line-height: 30px;\"">Neither</p></font>"",""<p style=\""font-size: 26px; line-height: 30px;\"">Distraction</p></font>""]","",""
"","image-button-response","37","736805","0.0-38.0","5e6de0ab9e71d4392921839b","652d46c8909a0ef52332ec58","6530a9c4395afa49d08f88a6","","","","","","Strategy_Choice","","5669","","","","","","","","","","","","","components/screenshots/FGV3524.png","2","","","[""<p style=\""font-size: 26px; line-height: 30px;\"">Reappraisal</p></font>"",""<p style=\""font-size: 26px; line-height: 30px;\"">Neither</p></font>"",""<p style=\""font-size: 26px; line-height: 30px;\"">Distraction</p></font>""]","",""
"","image-slider-response","38","755439","0.0-39.0-0.0","5e6de0ab9e71d4392921839b","652d46c8909a0ef52332ec58","6530a9c4395afa49d08f88a6","","","","","","Intensity_Reduction","[""<div style=\""width:1300px;\""><p style=\""font-size: 30px; line-height: 34px;\"">How much do you predict the strategy you chose would <strong>reduce</strong> the intensity of the average person's negative emotions?</p>""]","18632","","","","","","","","","","","","","components/screenshots/FGV3524.png","75","50","[""<p style=\""font-size: 26px; line-height: 30px;\"">Extremely<br>Reduced</p>"",""<p style=\""font-size: 26px; line-height: 30px;\"">Not at all<br>Reduced</p>""]","","",""
"","survey-likert","39","766872","0.0-39.0-1.0","5e6de0ab9e71d4392921839b","652d46c8909a0ef52332ec58","6530a9c4395afa49d08f88a6","","","","","","Effort","[""<div style=\""width:1300px;\""><p style=\""font-size: 30px; line-height: 34px;\"">Though someone may choose a specific strategy, the effort required to use that strategy may vary by situation.<br><br>How <strong>effortful</strong> do you predict the average other person would find using the regulation strategy that you had chosen while watching this clip?</p>""]","11432","","","","","","","","","","","","","","{""Outcome_Effort"":5}","","[""<p style=\""font-size: 26px; line-height: 30px;\"">Extremely<br>Effortful</p>"",""<p style=\""font-size: 26px; line-height: 30px;\"">Very much<br>Effortful</p>"",""<p style=\""font-size: 26px; line-height: 30px;\"">Considerably<br>Effortful</p>"",""<p style=\""font-size: 26px; line-height: 30px;\"">Moderately<br>Effortful</p>"",""<p style=\""font-size: 26px; line-height: 30px;\"">Somewhat<br>Effortful</p>"",""<p style=\""font-size: 26px; line-height: 30px;\"">Slightly<br>Effortful</p>"",""<p style=\""font-size: 26px; line-height: 30px;\"">Not at all<br>Effortful</p>""]","","[0]",""
"","survey-likert","40","771954","0.0-39.0-2.0","5e6de0ab9e71d4392921839b","652d46c8909a0ef52332ec58","6530a9c4395afa49d08f88a6","","","","","","Success","[""<div style=\""width:1300px;\""><p style=\""font-size: 30px; line-height: 34px;\"">Though someone may choose a specific strategy, whether we are able to fully use it may vary by situation.<br><br>How <strong>successfully</strong> do you predict the average other person could employ the regulation strategy that you had chosen while watching this clip?</p>""]","5080","","","","","","","","","","","","","","{""Outcome_Success"":1}","","[""<p style=\""font-size: 26px; line-height: 30px;\"">Extremely<br>Successful</p>"",""<p style=\""font-size: 26px; line-height: 30px;\"">Very much<br>Successful</p>"",""<p style=\""font-size: 26px; line-height: 30px;\"">Considerably<br>Successful</p>"",""<p style=\""font-size: 26px; line-height: 30px;\"">Moderately<br>Successful</p>"",""<p style=\""font-size: 26px; line-height: 30px;\"">Somewhat<br>Successful</p>"",""<p style=\""font-size: 26px; line-height: 30px;\"">Slightly<br>Successful</p>"",""<p style=\""font-size: 26px; line-height: 30px;\"">Not at all<br>Successful</p>""]","","[0]",""
"","image-button-response","41","783808","0.0-40.0","5e6de0ab9e71d4392921839b","652d46c8909a0ef52332ec58","6530a9c4395afa49d08f88a6","","","","","","Strategy_Choice","","11853","","","","","","","","","","","","","components/screenshots/HIU8424.png","0","","","[""<p style=\""font-size: 26px; line-height: 30px;\"">Reappraisal</p></font>"",""<p style=\""font-size: 26px; line-height: 30px;\"">Neither</p></font>"",""<p style=\""font-size: 26px; line-height: 30px;\"">Distraction</p></font>""]","",""
"","image-slider-response","42","801094","0.0-41.0-0.0","5e6de0ab9e71d4392921839b","652d46c8909a0ef52332ec58","6530a9c4395afa49d08f88a6","","","","","","Intensity_Reduction","[""<div style=\""width:1300px;\""><p style=\""font-size: 30px; line-height: 34px;\"">How much do you predict the strategy you chose would <strong>reduce</strong> the intensity of the average person's negative emotions?</p>""]","17285","","","","","","","","","","","","","components/screenshots/HIU8424.png","45","50","[""<p style=\""font-size: 26px; line-height: 30px;\"">Extremely<br>Reduced</p>"",""<p style=\""font-size: 26px; line-height: 30px;\"">Not at all<br>Reduced</p>""]","","",""
"","survey-likert","43","806259","0.0-41.0-1.0","5e6de0ab9e71d4392921839b","652d46c8909a0ef52332ec58","6530a9c4395afa49d08f88a6","","","","","","Effort","[""<div style=\""width:1300px;\""><p style=\""font-size: 30px; line-height: 34px;\"">Though someone may choose a specific strategy, the effort required to use that strategy may vary by situation.<br><br>How <strong>effortful</strong> do you predict the average other person would find using the regulation strategy that you had chosen while watching this clip?</p>""]","5163","","","","","","","","","","","","","","{""Outcome_Effort"":2}","","[""<p style=\""font-size: 26px; line-height: 30px;\"">Extremely<br>Effortful</p>"",""<p style=\""font-size: 26px; line-height: 30px;\"">Very much<br>Effortful</p>"",""<p style=\""font-size: 26px; line-height: 30px;\"">Considerably<br>Effortful</p>"",""<p style=\""font-size: 26px; line-height: 30px;\"">Moderately<br>Effortful</p>"",""<p style=\""font-size: 26px; line-height: 30px;\"">Somewhat<br>Effortful</p>"",""<p style=\""font-size: 26px; line-height: 30px;\"">Slightly<br>Effortful</p>"",""<p style=\""font-size: 26px; line-height: 30px;\"">Not at all<br>Effortful</p>""]","","[0]",""
"","survey-likert","44","810434","0.0-41.0-2.0","5e6de0ab9e71d4392921839b","652d46c8909a0ef52332ec58","6530a9c4395afa49d08f88a6","","","","","","Success","[""<div style=\""width:1300px;\""><p style=\""font-size: 30px; line-height: 34px;\"">Though someone may choose a specific strategy, whether we are able to fully use it may vary by situation.<br><br>How <strong>successfully</strong> do you predict the average other person could employ the regulation strategy that you had chosen while watching this clip?</p>""]","4174","","","","","","","","","","","","","","{""Outcome_Success"":4}","","[""<p style=\""font-size: 26px; line-height: 30px;\"">Extremely<br>Successful</p>"",""<p style=\""font-size: 26px; line-height: 30px;\"">Very much<br>Successful</p>"",""<p style=\""font-size: 26px; line-height: 30px;\"">Considerably<br>Successful</p>"",""<p style=\""font-size: 26px; line-height: 30px;\"">Moderately<br>Successful</p>"",""<p style=\""font-size: 26px; line-height: 30px;\"">Somewhat<br>Successful</p>"",""<p style=\""font-size: 26px; line-height: 30px;\"">Slightly<br>Successful</p>"",""<p style=\""font-size: 26px; line-height: 30px;\"">Not at all<br>Successful</p>""]","","[0]",""
"","image-button-response","45","832012","0.0-42.0","5e6de0ab9e71d4392921839b","652d46c8909a0ef52332ec58","6530a9c4395afa49d08f88a6","","","","","","Strategy_Choice","","21576","","","","","","","","","","","","","components/screenshots/CNL1892.png","2","","","[""<p style=\""font-size: 26px; line-height: 30px;\"">Reappraisal</p></font>"",""<p style=\""font-size: 26px; line-height: 30px;\"">Neither</p></font>"",""<p style=\""font-size: 26px; line-height: 30px;\"">Distraction</p></font>""]","",""
"","image-slider-response","46","842528","0.0-43.0-0.0","5e6de0ab9e71d4392921839b","652d46c8909a0ef52332ec58","6530a9c4395afa49d08f88a6","","","","","","Intensity_Reduction","[""<div style=\""width:1300px;\""><p style=\""font-size: 30px; line-height: 34px;\"">How much do you predict the strategy you chose would <strong>reduce</strong> the intensity of the average person's negative emotions?</p>""]","10515","","","","","","","","","","","","","components/screenshots/CNL1892.png","75","50","[""<p style=\""font-size: 26px; line-height: 30px;\"">Extremely<br>Reduced</p>"",""<p style=\""font-size: 26px; line-height: 30px;\"">Not at all<br>Reduced</p>""]","","",""
"","survey-likert","47","847349","0.0-43.0-1.0","5e6de0ab9e71d4392921839b","652d46c8909a0ef52332ec58","6530a9c4395afa49d08f88a6","","","","","","Effort","[""<div style=\""width:1300px;\""><p style=\""font-size: 30px; line-height: 34px;\"">Though someone may choose a specific strategy, the effort required to use that strategy may vary by situation.<br><br>How <strong>effortful</strong> do you predict the average other person would find using the regulation strategy that you had chosen while watching this clip?</p>""]","4820","","","","","","","","","","","","","","{""Outcome_Effort"":3}","","[""<p style=\""font-size: 26px; line-height: 30px;\"">Extremely<br>Effortful</p>"",""<p style=\""font-size: 26px; line-height: 30px;\"">Very much<br>Effortful</p>"",""<p style=\""font-size: 26px; line-height: 30px;\"">Considerably<br>Effortful</p>"",""<p style=\""font-size: 26px; line-height: 30px;\"">Moderately<br>Effortful</p>"",""<p style=\""font-size: 26px; line-height: 30px;\"">Somewhat<br>Effortful</p>"",""<p style=\""font-size: 26px; line-height: 30px;\"">Slightly<br>Effortful</p>"",""<p style=\""font-size: 26px; line-height: 30px;\"">Not at all<br>Effortful</p>""]","","[0]",""
"","survey-likert","48","850247","0.0-43.0-2.0","5e6de0ab9e71d4392921839b","652d46c8909a0ef52332ec58","6530a9c4395afa49d08f88a6","","","","","","Success","[""<div style=\""width:1300px;\""><p style=\""font-size: 30px; line-height: 34px;\"">Though someone may choose a specific strategy, whether we are able to fully use it may vary by situation.<br><br>How <strong>successfully</strong> do you predict the average other person could employ the regulation strategy that you had chosen while watching this clip?</p>""]","2896","","","","","","","","","","","","","","{""Outcome_Success"":1}","","[""<p style=\""font-size: 26px; line-height: 30px;\"">Extremely<br>Successful</p>"",""<p style=\""font-size: 26px; line-height: 30px;\"">Very much<br>Successful</p>"",""<p style=\""font-size: 26px; line-height: 30px;\"">Considerably<br>Successful</p>"",""<p style=\""font-size: 26px; line-height: 30px;\"">Moderately<br>Successful</p>"",""<p style=\""font-size: 26px; line-height: 30px;\"">Somewhat<br>Successful</p>"",""<p style=\""font-size: 26px; line-height: 30px;\"">Slightly<br>Successful</p>"",""<p style=\""font-size: 26px; line-height: 30px;\"">Not at all<br>Successful</p>""]","","[0]",""
"","survey-text","49","931969","0.0-44.0","5e6de0ab9e71d4392921839b","652d46c8909a0ef52332ec58","6530a9c4395afa49d08f88a6","","","","","","Misc_Examples","","81715","","","","","","","","","","","","","","{""Q0"":""You could just talk about how the special effects are being created or think about the actors/actress in real life"",""Q1"":""You could turn away or think about something at home or work while clip is playing""}","","","","",""
"","html-keyboard-response","50","936489","0.0-45.0","5e6de0ab9e71d4392921839b","652d46c8909a0ef52332ec58","6530a9c4395afa49d08f88a6","","","","","","Instr_IndDiffs","","4519","","","","","","","","","","","","","[[""<p style=\""font-size: 36px; width: 1200px; line-height: 40px;\"">You have just completed our video task! Thank you for your continued effort and attention. <br><br> In our final task, we will ask you questions about yourself. Please read the instructions before each series of questions and answer the questions honestly to the best of your abiltities.<br><br><br><br> Please press the <strong>SPACE BAR</strong> to continue</p>""]]"," ","","","","",""
"","survey-likert","51","986266","0.0-46.0","5e6de0ab9e71d4392921839b","652d46c8909a0ef52332ec58","6530a9c4395afa49d08f88a6","","","","","","Scale","","49776","","","","","","","","","","","","","","{""ERQ_01"":5,""ERQ_02"":5,""ERQ_03"":4,""ERQ_04"":2,""ERQ_05"":5,""ERQ_06"":5,""ERQ_07"":4,""ERQ_08"":5,""ERQ_09"":3,""ERQ_10"":4}","","","","[0,1,2,3,4,5,6,7,8,9]",""
"","survey-likert","52","1088299","0.0-47.0","5e6de0ab9e71d4392921839b","652d46c8909a0ef52332ec58","6530a9c4395afa49d08f88a6","","","","","","Scale","","102027","","","","","","","","","","","","","","{""DERS_01"":3,""DERS_02"":3,""DERS_03"":1,""DERS_04"":1,""DERS_05"":1,""DERS_06"":2,""DERS_07"":2,""DERS_08"":3,""DERS_09"":1,""DERS_10"":2,""DERS_11"":2,""DERS_12"":1,""DERS_13"":3,""DERS_14"":2,""DERS_15"":1,""DERS_16"":1,""DERS_17"":3,""DERS_18"":3,""DERS_19"":1,""DERS_20"":2,""DERS_21"":2,""DERS_22"":1,""DERS_23"":2,""DERS_24"":1,""DERS_25"":1,""DERS_26"":3,""DERS_27"":1,""DERS_28"":2,""DERS_29"":2,""DERS_30"":1,""DERS_31"":2,""DERS_32"":1,""DERS_33"":3,""DERS_34"":2,""DERS_35"":3,""DERS_36"":2}","","","","[0,1,2,3,4,5,6,7,8,9,10,11,12,13,14,15,16,17,18,19,20,21,22,23,24,25,26,27,28,29,30,31,32,33,34,35]",""
"","survey-likert","53","1126561","0.0-48.0","5e6de0ab9e71d4392921839b","652d46c8909a0ef52332ec58","6530a9c4395afa49d08f88a6","","","","","","Scale","","38259","","","","","","","","","","","","","","{""IUS-SF_01"":2,""IUS-SF_02"":3,""IUS-SF_03"":2,""IUS-SF_04"":3,""IUS-SF_05"":3,""IUS-SF_06"":2,""IUS-SF_07"":3,""IUS-SF_08"":2,""IUS-SF_09"":3,""IUS-SF_10"":3,""IUS-SF_11"":4,""IUS-SF_12"":2}","","","","[0,1,2,3,4,5,6,7,8,9,10,11]",""
"","survey","54","1161041","0.0-49.0","5e6de0ab9e71d4392921839b","652d46c8909a0ef52332ec58","6530a9c4395afa49d08f88a6","","","","","","Demographics","","34436","","","","","","","","","","","","","","{""Age"":""38"",""Gender_Identity"":""Male"",""Sex"":""Male"",""Race"":[""White or Caucasian"",""Asian""],""Marital_Status"":[""Married""],""Edu_Num"":""15"",""Edu_Cat"":""Vocational / technical / trade training"",""Income"":""$50,001 - $75,000""}","","","","","[]"
"","html-button-response","55","1163327","0.0-50.0","5e6de0ab9e71d4392921839b","652d46c8909a0ef52332ec58","6530a9c4395afa49d08f88a6","","","","","","Misc_Familiar_Any","","2285","","","","","","","","","","","","","<p style='font-size: 22px; line-height: 24px;'>Were you familiar with any of the videos that you had watched?.</p>","1","","","","",""
"","survey-likert","56","1166323","0.0-52.0","5e6de0ab9e71d4392921839b","652d46c8909a0ef52332ec58","6530a9c4395afa49d08f88a6","","","","","","Misc_Horror_Enjoy","","2995","","","","","","","","","","","","","","{""Horror_Enjoy"":5}","","","","[0]",""
"","survey-likert","57","1170389","0.0-53.0","5e6de0ab9e71d4392921839b","652d46c8909a0ef52332ec58","6530a9c4395afa49d08f88a6","","","","","","Misc_Attention_Check","","4064","","","","","","","","","","","","","","{""Attention_Check"":4}","","","","[0]",""
"","html-button-response","58","1176200","0.0-54.0","5e6de0ab9e71d4392921839b","652d46c8909a0ef52332ec58","6530a9c4395afa49d08f88a6","","","","","","Misc_Audio_Method","","5810","","","","","","","","","","","","","<p style='font-size: 22px; line-height: 24px;'>How did you hear audio during this experiment?.</p>","0","","","","",""
"","survey-text","59","1198060","0.0-55.0","5e6de0ab9e71d4392921839b","652d46c8909a0ef52332ec58","6530a9c4395afa49d08f88a6","","","","","","Misc_Difficulties","","21857","","","","","","","","","","","","","","{""Q0"":""No all worked well (first browser tho didn't work so switched to Chrome for this)""}","","","","",""
"","survey-text","60","1215623","0.0-56.0","5e6de0ab9e71d4392921839b","652d46c8909a0ef52332ec58","6530a9c4395afa49d08f88a6","","","","","","Misc_Questions","","17562","","","","","","","","","","","","","","{""Q0"":""""}","","","","",""
"","html-keyboard-response","61","1217368","0.0-57.0","5e6de0ab9e71d4392921839b","652d46c8909a0ef52332ec58","6530a9c4395afa49d08f88a6","","","","","","Instr_Closure","","1745","","","","","","","","","","","","","[""<p style=\""font-size: 36px; width: 1200px; line-height: 40px;\"">Thank you for completing the study! <br><br><br><br> Please press the <strong>SPACE BAR</strong> to automatically reroute back to Prolific to complete your study partcipation.</p>""]"," ","","","","",""
"","fullscreen","62","1217370","0.0-58.0","5e6de0ab9e71d4392921839b","652d46c8909a0ef52332ec58","6530a9c4395afa49d08f88a6","true","","","","","Fullscreen","","null","0:21:9","","","","","","","","","","","","","","","","","",""
