"","PID","Date","Start_Time","End_Time","Condition","Trial","Stimulus","Choice","IntBefore","IntAfter","ERQ_Supp","ERQ_Reapp","DERS","DERS_Nonaccept","DERS_Goals","DERS_Impulse","DERS_Awareness","DERS_Strategies","DERS_Clarity","IUS","IUS_F1","IUS_F2","Horror_Enjoy","Familiarity","Familiar_specific","Age","Gender_Identity","Sex","Race","Marital_Status","Edu_Num","Edu_Cat","Failures","ScreenWidth","ScreenHeight","WebAudio","Browser","Browser_Version","MobileUsed","OS","FullScreenUsed","VSync_Rate_Avg","VSync_Rate_SD","Attention_Check","Difficulties","Questions","RT_sec_Choice","RT_sec_IntBefore","RT_sec_IntAfter","RT_sec_ERQ","RT_sec_DERS","RT_sec_IUS","IntReduce","Effort","Success","RT_sec_IntReduce","RT_sec_Effort","RT_sec_Success","Income","Time_Taken"
"1","sub-001","2023-10-12","9:45:42","10:12:24","Strategy Use",1,"FGV3524","Neither","0","3",18,30,59,15,5,2,19,9,9,30,22,8,3,"No",NA,"44","Female","Female","White or Caucasian","Divorced","17","$50,001 - $75,000",FALSE,1920,NA,TRUE,"chrome","117.0.0",FALSE,"Windows 10",TRUE,60.42,0.342782730020051,4,"","",6.587,5.104,9.097,112.256,152.937,33.279,NA,NA,NA,NA,NA,NA,NA,1602
"2","sub-001","2023-10-12","9:45:42","10:12:24","Strategy Use",2,"CNL1892","Neither","0","5",18,30,59,15,5,2,19,9,9,30,22,8,3,"No",NA,"44","Female","Female","White or Caucasian","Divorced","17","$50,001 - $75,000",FALSE,1920,NA,TRUE,"chrome","117.0.0",FALSE,"Windows 10",TRUE,60.42,0.342782730020051,4,"","",1.159,5.413,5.277,112.256,152.937,33.279,NA,NA,NA,NA,NA,NA,NA,1602
"3","sub-001","2023-10-12","9:45:42","10:12:24","Strategy Use",3,"ARF1665","Neither","0","0",18,30,59,15,5,2,19,9,9,30,22,8,3,"No",NA,"44","Female","Female","White or Caucasian","Divorced","17","$50,001 - $75,000",FALSE,1920,NA,TRUE,"chrome","117.0.0",FALSE,"Windows 10",TRUE,60.42,0.342782730020051,4,"","",0.696,5.15,10.181,112.256,152.937,33.279,NA,NA,NA,NA,NA,NA,NA,1602
"4","sub-001","2023-10-12","9:45:42","10:12:24","Strategy Use",4,"HIU8424","Neither","0","2",18,30,59,15,5,2,19,9,9,30,22,8,3,"No",NA,"44","Female","Female","White or Caucasian","Divorced","17","$50,001 - $75,000",FALSE,1920,NA,TRUE,"chrome","117.0.0",FALSE,"Windows 10",TRUE,60.42,0.342782730020051,4,"","",0.654,6.33,7.94,112.256,152.937,33.279,NA,NA,NA,NA,NA,NA,NA,1602
"9","sub-002","2023-10-12","11:20:9","11:37:47","Strategy Use",1,"ARF1665","Distraction","0","66",4,29,52,6,9,4,19,7,7,12,10,2,2,"No",NA,"50","Female","Female","Hispanic or Latino","Married","19","Over $150,000",FALSE,1920,1080,TRUE,"chrome","117.0.0",FALSE,"Windows 10",TRUE,60.214,0.334409928082287,4,"no","no",5.538,13.776,15.196,35.397,127.309,35.927,"56",1,5,9.3,10.44,3.387,NA,1058
"10","sub-002","2023-10-12","11:20:9","11:37:47","Strategy Use",2,"FGV3524","Neither","0","56",4,29,52,6,9,4,19,7,7,12,10,2,2,"No",NA,"50","Female","Female","Hispanic or Latino","Married","19","Over $150,000",FALSE,1920,1080,TRUE,"chrome","117.0.0",FALSE,"Windows 10",TRUE,60.214,0.334409928082287,4,"no","no",4.604,16.188,13.362,35.397,127.309,35.927,NA,NA,NA,NA,NA,NA,NA,1058
"11","sub-002","2023-10-12","11:20:9","11:37:47","Strategy Use",3,"CNL1892","Neither","1","45",4,29,52,6,9,4,19,7,7,12,10,2,2,"No",NA,"50","Female","Female","Hispanic or Latino","Married","19","Over $150,000",FALSE,1920,1080,TRUE,"chrome","117.0.0",FALSE,"Windows 10",TRUE,60.214,0.334409928082287,4,"no","no",4.012,12.15,20.547,35.397,127.309,35.927,NA,NA,NA,NA,NA,NA,NA,1058
"12","sub-002","2023-10-12","11:20:9","11:37:47","Strategy Use",4,"HIU8424","Distraction","0","57",4,29,52,6,9,4,19,7,7,12,10,2,2,"No",NA,"50","Female","Female","Hispanic or Latino","Married","19","Over $150,000",FALSE,1920,1080,TRUE,"chrome","117.0.0",FALSE,"Windows 10",TRUE,60.214,0.334409928082287,4,"no","no",2.354,8.581,18.475,35.397,127.309,35.927,"44",2,2,7.534,4.153,3.191,NA,1058
"13","sub-003","2023-10-12","11:26:14","11:47:5","Strategy Forecast",1,"CNL1892","Reappraisal","5","10",13,29,50,5,6,3,26,6,4,13,13,0,2,"No",NA,"59","Male","Male","White or Caucasian","Single","11","$15,001 - $25,000",FALSE,1536,864,TRUE,"chrome","117.0.0",FALSE,"Chrome OS",TRUE,61.13,0.359513560244952,4,"none","none",16.714,25.658,13.068,52.61,134.715,48.727,"90",1,5,16.042,21.875,6.122,NA,1251
"14","sub-003","2023-10-12","11:26:14","11:47:5","Strategy Forecast",2,"HIU8424","Reappraisal","4","10",13,29,50,5,6,3,26,6,4,13,13,0,2,"No",NA,"59","Male","Male","White or Caucasian","Single","11","$15,001 - $25,000",FALSE,1536,864,TRUE,"chrome","117.0.0",FALSE,"Chrome OS",TRUE,61.13,0.359513560244952,4,"none","none",10.395,7.997,8.403,52.61,134.715,48.727,"73",2,5,11.697,5.146,3.104,NA,1251
"15","sub-003","2023-10-12","11:26:14","11:47:5","Strategy Forecast",3,"FGV3524","Neither","5","5",13,29,50,5,6,3,26,6,4,13,13,0,2,"No",NA,"59","Male","Male","White or Caucasian","Single","11","$15,001 - $25,000",FALSE,1536,864,TRUE,"chrome","117.0.0",FALSE,"Chrome OS",TRUE,61.13,0.359513560244952,4,"none","none",12.024,10.238,14.07,52.61,134.715,48.727,NA,NA,NA,NA,NA,NA,NA,1251
"16","sub-003","2023-10-12","11:26:14","11:47:5","Strategy Forecast",4,"ARF1665","Reappraisal","5","9",13,29,50,5,6,3,26,6,4,13,13,0,2,"No",NA,"59","Male","Male","White or Caucasian","Single","11","$15,001 - $25,000",FALSE,1536,864,TRUE,"chrome","117.0.0",FALSE,"Chrome OS",TRUE,61.13,0.359513560244952,4,"none","none",4.437,9.407,8.742,52.61,134.715,48.727,"92",1,5,8.249,4.109,3.062,NA,1251
"17","sub-243","2023-10-12","11:39:4","11:56:37","Strategy Forecast",1,"ARF1665","Neither","20","20",11,24,66,4,17,11,12,16,6,17,13,4,0,"No",NA,"42","Male","Male","White or Caucasian","Divorced","14","$25,001 - $35,000",FALSE,1920,1080,TRUE,"chrome","117.0.0",FALSE,"Windows 10",TRUE,60.302,0.317600377833529,4,"no","no",7.287,11.758,9.54,44.035,130.155,34.897,NA,NA,NA,NA,NA,NA,NA,1053
"18","sub-243","2023-10-12","11:39:4","11:56:37","Strategy Forecast",2,"CNL1892","Reappraisal","20","36",11,24,66,4,17,11,12,16,6,17,13,4,0,"No",NA,"42","Male","Male","White or Caucasian","Divorced","14","$25,001 - $35,000",FALSE,1920,1080,TRUE,"chrome","117.0.0",FALSE,"Windows 10",TRUE,60.302,0.317600377833529,4,"no","no",7.823,12.539,10.096,44.035,130.155,34.897,"60",5,4,9.413,15.547,2.915,NA,1053
"19","sub-243","2023-10-12","11:39:4","11:56:37","Strategy Forecast",3,"HIU8424","Neither","30","20",11,24,66,4,17,11,12,16,6,17,13,4,0,"No",NA,"42","Male","Male","White or Caucasian","Divorced","14","$25,001 - $35,000",FALSE,1920,1080,TRUE,"chrome","117.0.0",FALSE,"Windows 10",TRUE,60.302,0.317600377833529,4,"no","no",2.519,7.828,9.893,44.035,130.155,34.897,NA,NA,NA,NA,NA,NA,NA,1053
"20","sub-243","2023-10-12","11:39:4","11:56:37","Strategy Forecast",4,"FGV3524","Neither","20","20",11,24,66,4,17,11,12,16,6,17,13,4,0,"No",NA,"42","Male","Male","White or Caucasian","Divorced","14","$25,001 - $35,000",FALSE,1920,1080,TRUE,"chrome","117.0.0",FALSE,"Windows 10",TRUE,60.302,0.317600377833529,4,"no","no",3.437,12.591,9.036,44.035,130.155,34.897,NA,NA,NA,NA,NA,NA,NA,1053
"21","sub-005","2023-10-12","11:37:3","11:57:40","Strategy Forecast",1,"FGV3524","Neither","49","0",3,21,35,0,6,2,18,3,6,9,9,0,4,"No",NA,"38","Female","Female","Hispanic or Latino","Single","12","$25,001 - $35,000",FALSE,1536,864,TRUE,"firefox","118.0.0",FALSE,"Windows 10",TRUE,61.138,0.337372198024674,4,"You should say in the survey description that it only works with certain browsers.","",5.09,11.128,7.174,53.155,101.245,45.071,NA,NA,NA,NA,NA,NA,NA,1237
"22","sub-005","2023-10-12","11:37:3","11:57:40","Strategy Forecast",2,"CNL1892","Distraction","0","100",3,21,35,0,6,2,18,3,6,9,9,0,4,"No",NA,"38","Female","Female","Hispanic or Latino","Single","12","$25,001 - $35,000",FALSE,1536,864,TRUE,"firefox","118.0.0",FALSE,"Windows 10",TRUE,61.138,0.337372198024674,4,"You should say in the survey description that it only works with certain browsers.","",2.457,3.327,6.478,53.155,101.245,45.071,"44",5,5,11.625,20.954,3.77,NA,1237
"23","sub-005","2023-10-12","11:37:3","11:57:40","Strategy Forecast",3,"HIU8424","Distraction","100","100",3,21,35,0,6,2,18,3,6,9,9,0,4,"No",NA,"38","Female","Female","Hispanic or Latino","Single","12","$25,001 - $35,000",FALSE,1536,864,TRUE,"firefox","118.0.0",FALSE,"Windows 10",TRUE,61.138,0.337372198024674,4,"You should say in the survey description that it only works with certain browsers.","",3.479,4.201,7.152,53.155,101.245,45.071,"23",5,5,3.119,3.941,2.064,NA,1237
"24","sub-005","2023-10-12","11:37:3","11:57:40","Strategy Forecast",4,"ARF1665","Distraction","100","100",3,21,35,0,6,2,18,3,6,9,9,0,4,"No",NA,"38","Female","Female","Hispanic or Latino","Single","12","$25,001 - $35,000",FALSE,1536,864,TRUE,"firefox","118.0.0",FALSE,"Windows 10",TRUE,61.138,0.337372198024674,4,"You should say in the survey description that it only works with certain browsers.","",3.006,2.616,5.618,53.155,101.245,45.071,"17",5,5,4.948,2.274,3.136,NA,1237
"25","sub-006","2023-10-12","11:44:32","12:10:42","Strategy Use",1,"CNL1892","Neither","0","100",10,22,91,11,11,3,27,23,16,19,13,6,0,"No",NA,"54","Female","Female","White or Caucasian","Married","17","$50,001 - $75,000",FALSE,2048,1152,TRUE,"firefox","118.0.0",FALSE,"Mac OS",TRUE,60.18,0.174928556845359,4,"no","",8.253,17.677,10.385,68.532,151.622,50.898,NA,NA,NA,NA,NA,NA,NA,1570
"26","sub-006","2023-10-12","11:44:32","12:10:42","Strategy Use",2,"ARF1665","Distraction","83","100",10,22,91,11,11,3,27,23,16,19,13,6,0,"No",NA,"54","Female","Female","White or Caucasian","Married","17","$50,001 - $75,000",FALSE,2048,1152,TRUE,"firefox","118.0.0",FALSE,"Mac OS",TRUE,60.18,0.174928556845359,4,"no","",6.969,22.815,12.967,68.532,151.622,50.898,"60",6,6,19.329,19.003,7.396,NA,1570
"27","sub-006","2023-10-12","11:44:32","12:10:42","Strategy Use",3,"FGV3524","Neither","100","96",10,22,91,11,11,3,27,23,16,19,13,6,0,"No",NA,"54","Female","Female","White or Caucasian","Married","17","$50,001 - $75,000",FALSE,2048,1152,TRUE,"firefox","118.0.0",FALSE,"Mac OS",TRUE,60.18,0.174928556845359,4,"no","",10.272,4.44,13.214,68.532,151.622,50.898,NA,NA,NA,NA,NA,NA,NA,1570
"28","sub-006","2023-10-12","11:44:32","12:10:42","Strategy Use",4,"HIU8424","Reappraisal","83","100",10,22,91,11,11,3,27,23,16,19,13,6,0,"No",NA,"54","Female","Female","White or Caucasian","Married","17","$50,001 - $75,000",FALSE,2048,1152,TRUE,"firefox","118.0.0",FALSE,"Mac OS",TRUE,60.18,0.174928556845359,4,"no","",8.171,12.802,7.722,68.532,151.622,50.898,"30",4,5,39.243,12.506,7.455,NA,1570
"29","sub-007","2023-10-12","11:54:21","12:14:11","Strategy Use",1,"HIU8424","Reappraisal","0","10",7,26,128,11,22,26,23,29,17,33,19,14,6,"No",NA,"24","Female","Female","White or Caucasian","Married","","$25,001 - $35,000",FALSE,1536,864,TRUE,"chrome","117.0.0",FALSE,"Windows 10",TRUE,60.438,0.340837204541992,4,"","",9.641,5.651,11.144,62.271,108.348,56.924,"58",4,0,12.243,10.032,9.241,NA,1190
"30","sub-007","2023-10-12","11:54:21","12:14:11","Strategy Use",2,"CNL1892","Reappraisal","0","0",7,26,128,11,22,26,23,29,17,33,19,14,6,"No",NA,"24","Female","Female","White or Caucasian","Married","","$25,001 - $35,000",FALSE,1536,864,TRUE,"chrome","117.0.0",FALSE,"Windows 10",TRUE,60.438,0.340837204541992,4,"","",3.717,5.336,5.299,62.271,108.348,56.924,"63",5,0,7.539,4.486,3.119,NA,1190
"31","sub-007","2023-10-12","11:54:21","12:14:11","Strategy Use",3,"FGV3524","Reappraisal","0","5",7,26,128,11,22,26,23,29,17,33,19,14,6,"No",NA,"24","Female","Female","White or Caucasian","Married","","$25,001 - $35,000",FALSE,1536,864,TRUE,"chrome","117.0.0",FALSE,"Windows 10",TRUE,60.438,0.340837204541992,4,"","",2.167,6.793,9.361,62.271,108.348,56.924,"65",5,0,9.987,2.627,4.313,NA,1190
"32","sub-007","2023-10-12","11:54:21","12:14:11","Strategy Use",4,"ARF1665","Reappraisal","0","5",7,26,128,11,22,26,23,29,17,33,19,14,6,"No",NA,"24","Female","Female","White or Caucasian","Married","","$25,001 - $35,000",FALSE,1536,864,TRUE,"chrome","117.0.0",FALSE,"Windows 10",TRUE,60.438,0.340837204541992,4,"","",1.722,18.162,8.976,62.271,108.348,56.924,"68",5,0,6.542,2.313,5.397,NA,1190
"33","sub-008","2023-10-12","12:45:41","13:2:21","Strategy Forecast",1,"ARF1665","Distraction","10","20",10,24,58,5,11,6,18,8,10,27,19,8,5,"No",NA,"28","Non-binary / Third gender","Male","Asian","Single","23"," $100,001 - $150,000",FALSE,NA,NA,TRUE,"chrome","117.0.0",FALSE,"Windows 10",TRUE,60.304,0.292284108360344,4,"","",15.551,5.788,6.124,42.53,93.849,31.691,"30",0,2,5.929,10.001,8.186,NA,1000
"34","sub-008","2023-10-12","12:45:41","13:2:21","Strategy Forecast",2,"FGV3524","Distraction","20","25",10,24,58,5,11,6,18,8,10,27,19,8,5,"No",NA,"28","Non-binary / Third gender","Male","Asian","Single","23"," $100,001 - $150,000",FALSE,NA,NA,TRUE,"chrome","117.0.0",FALSE,"Windows 10",TRUE,60.304,0.292284108360344,4,"","",5.16,15.744,7.773,42.53,93.849,31.691,"30",2,2,6.491,1.847,3.247,NA,1000
"35","sub-008","2023-10-12","12:45:41","13:2:21","Strategy Forecast",3,"CNL1892","Distraction","23","20",10,24,58,5,11,6,18,8,10,27,19,8,5,"No",NA,"28","Non-binary / Third gender","Male","Asian","Single","23"," $100,001 - $150,000",FALSE,NA,NA,TRUE,"chrome","117.0.0",FALSE,"Windows 10",TRUE,60.304,0.292284108360344,4,"","",3.51,5.496,11.944,42.53,93.849,31.691,"19",1,2,12.892,4.029,1.724,NA,1000
"36","sub-008","2023-10-12","12:45:41","13:2:21","Strategy Forecast",4,"HIU8424","Reappraisal","20","15",10,24,58,5,11,6,18,8,10,27,19,8,5,"No",NA,"28","Non-binary / Third gender","Male","Asian","Single","23"," $100,001 - $150,000",FALSE,NA,NA,TRUE,"chrome","117.0.0",FALSE,"Windows 10",TRUE,60.304,0.292284108360344,4,"","",3.036,4.447,9.294,42.53,93.849,31.691,"50",1,3,4.073,3.139,3.972,NA,1000
"37","sub-009","2023-10-12","12:42:1","13:14:35","Strategy Use",1,"HIU8424","Distraction","2","70",13,16,63,1,14,3,24,12,9,24,16,8,3,"No",NA,"35","Female","Female","White or Caucasian","Single","12","Prefer not to say",FALSE,1517,853,TRUE,"chrome","117.0.0",FALSE,"Windows 10",TRUE,60.566,0.489009202367399,4,"","",17.33,12.047,15.798,206.97,346.167,48.47,"45",2,3,11.482,11.22,10.671,NA,1954
"38","sub-009","2023-10-12","12:42:1","13:14:35","Strategy Use",2,"CNL1892","Neither","25","60",13,16,63,1,14,3,24,12,9,24,16,8,3,"No",NA,"35","Female","Female","White or Caucasian","Single","12","Prefer not to say",FALSE,1517,853,TRUE,"chrome","117.0.0",FALSE,"Windows 10",TRUE,60.566,0.489009202367399,4,"","",18.687,7.297,15.876,206.97,346.167,48.47,NA,NA,NA,NA,NA,NA,NA,1954
"39","sub-009","2023-10-12","12:42:1","13:14:35","Strategy Use",3,"ARF1665","Distraction","14","72",13,16,63,1,14,3,24,12,9,24,16,8,3,"No",NA,"35","Female","Female","White or Caucasian","Single","12","Prefer not to say",FALSE,1517,853,TRUE,"chrome","117.0.0",FALSE,"Windows 10",TRUE,60.566,0.489009202367399,4,"","",5.051,18.871,11.306,206.97,346.167,48.47,"55",2,3,11.138,9.519,4.217,NA,1954
"40","sub-009","2023-10-12","12:42:1","13:14:35","Strategy Use",4,"FGV3524","Neither","20","30",13,16,63,1,14,3,24,12,9,24,16,8,3,"No",NA,"35","Female","Female","White or Caucasian","Single","12","Prefer not to say",FALSE,1517,853,TRUE,"chrome","117.0.0",FALSE,"Windows 10",TRUE,60.566,0.489009202367399,4,"","",6.225,5.863,15.23,206.97,346.167,48.47,NA,NA,NA,NA,NA,NA,NA,1954
"41","sub-010","2023-10-14","20:17:16","20:37:38","Strategy Forecast",1,"FGV3524","Distraction","13","26",8,22,114,13,20,23,20,22,16,30,18,12,5,"No",NA,"34","Male","Male","Asian","Single","16","Undergradaute degree (BA, BS, etc.)",FALSE,1920,1080,TRUE,"chrome","117.0.0",FALSE,"Windows 10",TRUE,60.418,0.368198316128687,4,"","",13.653,8.098,15.878,39.719,89.051,35.663,"66",2,2,11.774,7.276,3.148,"$75,001 - $100,000",1222
"42","sub-010","2023-10-14","20:17:16","20:37:38","Strategy Forecast",2,"HIU8424","Neither","0","43",8,22,114,13,20,23,20,22,16,30,18,12,5,"No",NA,"34","Male","Male","Asian","Single","16","Undergradaute degree (BA, BS, etc.)",FALSE,1920,1080,TRUE,"chrome","117.0.0",FALSE,"Windows 10",TRUE,60.418,0.368198316128687,4,"","",5.235,7.159,13.063,39.719,89.051,35.663,NA,NA,NA,NA,NA,NA,"$75,001 - $100,000",1222
"43","sub-010","2023-10-14","20:17:16","20:37:38","Strategy Forecast",3,"ARF1665","Neither","21","56",8,22,114,13,20,23,20,22,16,30,18,12,5,"No",NA,"34","Male","Male","Asian","Single","16","Undergradaute degree (BA, BS, etc.)",FALSE,1920,1080,TRUE,"chrome","117.0.0",FALSE,"Windows 10",TRUE,60.418,0.368198316128687,4,"","",2.147,4.673,8.703,39.719,89.051,35.663,NA,NA,NA,NA,NA,NA,"$75,001 - $100,000",1222
"44","sub-010","2023-10-14","20:17:16","20:37:38","Strategy Forecast",4,"CNL1892","Reappraisal","32","42",8,22,114,13,20,23,20,22,16,30,18,12,5,"No",NA,"34","Male","Male","Asian","Single","16","Undergradaute degree (BA, BS, etc.)",FALSE,1920,1080,TRUE,"chrome","117.0.0",FALSE,"Windows 10",TRUE,60.418,0.368198316128687,4,"","",4.295,3.911,24.565,39.719,89.051,35.663,"38",4,3,6.999,2.466,3.855,"$75,001 - $100,000",1222
"45","sub-011","2023-10-14","20:40:51","20:55:21","Strategy Use",1,"CNL1892","Neither","14","20",7,20,95,9,13,15,23,22,13,14,8,6,6,"No",NA,"35","Male","Male","Asian","Single","17","Some graduate school",FALSE,1920,1080,TRUE,"chrome","118.0.0",FALSE,"Windows 10",TRUE,60.664,0.376735981822815,4,"","",3.741,5.233,5.735,27.226,85.402,30.08,NA,NA,NA,NA,NA,NA,"$25,001 - $35,000",870
"46","sub-011","2023-10-14","20:40:51","20:55:21","Strategy Use",2,"FGV3524","Neither","16","16",7,20,95,9,13,15,23,22,13,14,8,6,6,"No",NA,"35","Male","Male","Asian","Single","17","Some graduate school",FALSE,1920,1080,TRUE,"chrome","118.0.0",FALSE,"Windows 10",TRUE,60.664,0.376735981822815,4,"","",2.117,5.025,11.321,27.226,85.402,30.08,NA,NA,NA,NA,NA,NA,"$25,001 - $35,000",870
"47","sub-011","2023-10-14","20:40:51","20:55:21","Strategy Use",3,"ARF1665","Reappraisal","16","13",7,20,95,9,13,15,23,22,13,14,8,6,6,"No",NA,"35","Male","Male","Asian","Single","17","Some graduate school",FALSE,1920,1080,TRUE,"chrome","118.0.0",FALSE,"Windows 10",TRUE,60.664,0.376735981822815,4,"","",6.292,9.958,6.902,27.226,85.402,30.08,"64",5,2,14.844,4.143,2.53,"$25,001 - $35,000",870
"48","sub-011","2023-10-14","20:40:51","20:55:21","Strategy Use",4,"HIU8424","Neither","10","30",7,20,95,9,13,15,23,22,13,14,8,6,6,"No",NA,"35","Male","Male","Asian","Single","17","Some graduate school",FALSE,1920,1080,TRUE,"chrome","118.0.0",FALSE,"Windows 10",TRUE,60.664,0.376735981822815,4,"","",2.855,3.93,10.52,27.226,85.402,30.08,NA,NA,NA,NA,NA,NA,"$25,001 - $35,000",870
"49","sub-012","2023-10-14","20:59:38","21:27:5","Strategy Use",1,"HIU8424","Distraction","0","65",6,24,75,14,22,8,17,8,6,36,23,13,1,"No",NA,"48","Female","Female","White or Caucasian","Married","15","Some college",FALSE,1360,768,TRUE,"chrome","109.0.0",FALSE,"Windows 7",TRUE,59.678,0.362932500611339,4,"no","no",4.309,16.373,20.403,58.675,128.047,77.775,"35",2,2,27.354,8.578,7.597,"$50,001 - $75,000",1647
"50","sub-012","2023-10-14","20:59:38","21:27:5","Strategy Use",2,"FGV3524","Neither","60","55",6,24,75,14,22,8,17,8,6,36,23,13,1,"No",NA,"48","Female","Female","White or Caucasian","Married","15","Some college",FALSE,1360,768,TRUE,"chrome","109.0.0",FALSE,"Windows 7",TRUE,59.678,0.362932500611339,4,"no","no",5.021,10.85,30.31,58.675,128.047,77.775,NA,NA,NA,NA,NA,NA,"$50,001 - $75,000",1647
"51","sub-012","2023-10-14","20:59:38","21:27:5","Strategy Use",3,"ARF1665","Distraction","55","90",6,24,75,14,22,8,17,8,6,36,23,13,1,"No",NA,"48","Female","Female","White or Caucasian","Married","15","Some college",FALSE,1360,768,TRUE,"chrome","109.0.0",FALSE,"Windows 7",TRUE,59.678,0.362932500611339,4,"no","no",8.799,5.965,9.556,58.675,128.047,77.775,"33",2,2,18.591,4.695,3.957,"$50,001 - $75,000",1647
"52","sub-012","2023-10-14","20:59:38","21:27:5","Strategy Use",4,"CNL1892","Neither","75","75",6,24,75,14,22,8,17,8,6,36,23,13,1,"No",NA,"48","Female","Female","White or Caucasian","Married","15","Some college",FALSE,1360,768,TRUE,"chrome","109.0.0",FALSE,"Windows 7",TRUE,59.678,0.362932500611339,4,"no","no",7.69,7.989,16.311,58.675,128.047,77.775,NA,NA,NA,NA,NA,NA,"$50,001 - $75,000",1647
"53","sub-013","2023-10-14","21:23:37","21:41:23","Strategy Use",1,"CNL1892","Neither","0","15",9,24,73,12,12,9,20,13,7,31,23,8,3,"No",NA,"33","Female","Female","White or Caucasian","Single","","Undergradaute degree (BA, BS, etc.)",FALSE,2560,1440,TRUE,"firefox","118.0.0",FALSE,"Windows 10",TRUE,60.596,0.504261836747537,4,"It would have been nice to know what films the clips were from at the end. Now I'm left wondering what was happening in those stories!","",9.372,11.266,12.81,59.593,127.015,46.474,NA,NA,NA,NA,NA,NA,"$35,001 - $50,000",1066
"54","sub-013","2023-10-14","21:23:37","21:41:23","Strategy Use",2,"HIU8424","Neither","5","15",9,24,73,12,12,9,20,13,7,31,23,8,3,"No",NA,"33","Female","Female","White or Caucasian","Single","","Undergradaute degree (BA, BS, etc.)",FALSE,2560,1440,TRUE,"firefox","118.0.0",FALSE,"Windows 10",TRUE,60.596,0.504261836747537,4,"It would have been nice to know what films the clips were from at the end. Now I'm left wondering what was happening in those stories!","",5.34,10.363,8.364,59.593,127.015,46.474,NA,NA,NA,NA,NA,NA,"$35,001 - $50,000",1066
"55","sub-013","2023-10-14","21:23:37","21:41:23","Strategy Use",3,"FGV3524","Neither","10","10",9,24,73,12,12,9,20,13,7,31,23,8,3,"No",NA,"33","Female","Female","White or Caucasian","Single","","Undergradaute degree (BA, BS, etc.)",FALSE,2560,1440,TRUE,"firefox","118.0.0",FALSE,"Windows 10",TRUE,60.596,0.504261836747537,4,"It would have been nice to know what films the clips were from at the end. Now I'm left wondering what was happening in those stories!","",2.789,11.032,11.232,59.593,127.015,46.474,NA,NA,NA,NA,NA,NA,"$35,001 - $50,000",1066
"56","sub-013","2023-10-14","21:23:37","21:41:23","Strategy Use",4,"ARF1665","Neither","5","15",9,24,73,12,12,9,20,13,7,31,23,8,3,"No",NA,"33","Female","Female","White or Caucasian","Single","","Undergradaute degree (BA, BS, etc.)",FALSE,2560,1440,TRUE,"firefox","118.0.0",FALSE,"Windows 10",TRUE,60.596,0.504261836747537,4,"It would have been nice to know what films the clips were from at the end. Now I'm left wondering what was happening in those stories!","",9.762,7.7,5.248,59.593,127.015,46.474,NA,NA,NA,NA,NA,NA,"$35,001 - $50,000",1066
"57","sub-014","2023-10-14","21:35:58","21:56:25","Strategy Forecast",1,"CNL1892","Neither","20","40",12,20,59,5,12,4,20,6,12,24,16,8,6,"No",NA,"28","Female","Female","White or Caucasian","Single","17","Undergradaute degree (BA, BS, etc.)",FALSE,1280,800,TRUE,"safari","13.1.2",FALSE,"Mac OS",TRUE,59.784,0.0328633534503112,4,"","",11.948,13.091,17.403,84.319,187.426,43.276,NA,NA,NA,NA,NA,NA,"$35,001 - $50,000",1227
"58","sub-014","2023-10-14","21:35:58","21:56:25","Strategy Forecast",2,"FGV3524","Reappraisal","20","50",12,20,59,5,12,4,20,6,12,24,16,8,6,"No",NA,"28","Female","Female","White or Caucasian","Single","17","Undergradaute degree (BA, BS, etc.)",FALSE,1280,800,TRUE,"safari","13.1.2",FALSE,"Mac OS",TRUE,59.784,0.0328633534503112,4,"","",4.298,12.341,18.312,84.319,187.426,43.276,"58",3,2,11.575,11.688,11.898,"$35,001 - $50,000",1227
"59","sub-014","2023-10-14","21:35:58","21:56:25","Strategy Forecast",3,"HIU8424","Neither","33","55",12,20,59,5,12,4,20,6,12,24,16,8,6,"No",NA,"28","Female","Female","White or Caucasian","Single","17","Undergradaute degree (BA, BS, etc.)",FALSE,1280,800,TRUE,"safari","13.1.2",FALSE,"Mac OS",TRUE,59.784,0.0328633534503112,4,"","",10.421,10.097,15.468,84.319,187.426,43.276,NA,NA,NA,NA,NA,NA,"$35,001 - $50,000",1227
"60","sub-014","2023-10-14","21:35:58","21:56:25","Strategy Forecast",4,"ARF1665","Neither","33","38",12,20,59,5,12,4,20,6,12,24,16,8,6,"No",NA,"28","Female","Female","White or Caucasian","Single","17","Undergradaute degree (BA, BS, etc.)",FALSE,1280,800,TRUE,"safari","13.1.2",FALSE,"Mac OS",TRUE,59.784,0.0328633534503112,4,"","",3.88,7.34,9.165,84.319,187.426,43.276,NA,NA,NA,NA,NA,NA,"$35,001 - $50,000",1227
"61","sub-015","2023-10-14","22:31:9","22:59:33","Strategy Forecast",1,"CNL1892","Reappraisal","0","70",18,26,88,6,17,3,28,20,14,33,15,18,3,"No",NA,"34","Male","Male","White or Caucasian","Single","15","Vocational / technical / trade training",FALSE,1920,1080,TRUE,"chrome","118.0.0",FALSE,"Windows 10",TRUE,60.394,0.377862408820988,4,"The slider used before watch the video doesn't work very well. It worked fine AFTER I saw each clips, but not before.","I would love to know what movie/show the second clip is from.",22.845,19.305,33.359,104.539,172.402,74.695,"85",2,4,14.618,12.914,17.966,"$50,001 - $75,000",1704
"62","sub-015","2023-10-14","22:31:9","22:59:33","Strategy Forecast",2,"HIU8424","Distraction","60","90",18,26,88,6,17,3,28,20,14,33,15,18,3,"No",NA,"34","Male","Male","White or Caucasian","Single","15","Vocational / technical / trade training",FALSE,1920,1080,TRUE,"chrome","118.0.0",FALSE,"Windows 10",TRUE,60.394,0.377862408820988,4,"The slider used before watch the video doesn't work very well. It worked fine AFTER I saw each clips, but not before.","I would love to know what movie/show the second clip is from.",4.067,15.706,25.94,104.539,172.402,74.695,"80",5,1,35.844,34.503,11.256,"$50,001 - $75,000",1704
"63","sub-015","2023-10-14","22:31:9","22:59:33","Strategy Forecast",3,"ARF1665","Distraction","60","65",18,26,88,6,17,3,28,20,14,33,15,18,3,"No",NA,"34","Male","Male","White or Caucasian","Single","15","Vocational / technical / trade training",FALSE,1920,1080,TRUE,"chrome","118.0.0",FALSE,"Windows 10",TRUE,60.394,0.377862408820988,4,"The slider used before watch the video doesn't work very well. It worked fine AFTER I saw each clips, but not before.","I would love to know what movie/show the second clip is from.",29.194,4.925,17.004,104.539,172.402,74.695,"85",1,5,16.56,4.777,3.488,"$50,001 - $75,000",1704
"64","sub-015","2023-10-14","22:31:9","22:59:33","Strategy Forecast",4,"FGV3524","Neither","50","30",18,26,88,6,17,3,28,20,14,33,15,18,3,"No",NA,"34","Male","Male","White or Caucasian","Single","15","Vocational / technical / trade training",FALSE,1920,1080,TRUE,"chrome","118.0.0",FALSE,"Windows 10",TRUE,60.394,0.377862408820988,4,"The slider used before watch the video doesn't work very well. It worked fine AFTER I saw each clips, but not before.","I would love to know what movie/show the second clip is from.",9.735,6.753,19.499,104.539,172.402,74.695,NA,NA,NA,NA,NA,NA,"$50,001 - $75,000",1704
"65","sub-016","2023-10-14","23:22:47","23:41:6","Strategy Forecast",1,"HIU8424","Reappraisal","0","95",11,14,56,4,7,2,25,9,9,14,8,6,1,"No",NA,"64","Male","Male","White or Caucasian","Divorced","15","Some college",FALSE,1536,864,TRUE,"chrome","118.0.0",FALSE,"Windows 10",TRUE,60.392,0.435281518100643,4,"The slider bars didn't work well, either with mouse of trackpad","",12.075,4.797,8.975,40.752,134.748,47.73,"24",3,1,14.295,7.811,4.395,"$15,001 - $25,000",1099
"66","sub-016","2023-10-14","23:22:47","23:41:6","Strategy Forecast",2,"ARF1665","Reappraisal","3","78",11,14,56,4,7,2,25,9,9,14,8,6,1,"No",NA,"64","Male","Male","White or Caucasian","Divorced","15","Some college",FALSE,1536,864,TRUE,"chrome","118.0.0",FALSE,"Windows 10",TRUE,60.392,0.435281518100643,4,"The slider bars didn't work well, either with mouse of trackpad","",4.658,21.977,20.912,40.752,134.748,47.73,"57",0,3,17.191,7.98,3.412,"$15,001 - $25,000",1099
"67","sub-016","2023-10-14","23:22:47","23:41:6","Strategy Forecast",3,"FGV3524","Neither","7","66",11,14,56,4,7,2,25,9,9,14,8,6,1,"No",NA,"64","Male","Male","White or Caucasian","Divorced","15","Some college",FALSE,1536,864,TRUE,"chrome","118.0.0",FALSE,"Windows 10",TRUE,60.392,0.435281518100643,4,"The slider bars didn't work well, either with mouse of trackpad","",5.091,20.284,9.798,40.752,134.748,47.73,NA,NA,NA,NA,NA,NA,"$15,001 - $25,000",1099
"68","sub-016","2023-10-14","23:22:47","23:41:6","Strategy Forecast",4,"CNL1892","Neither","11","75",11,14,56,4,7,2,25,9,9,14,8,6,1,"No",NA,"64","Male","Male","White or Caucasian","Divorced","15","Some college",FALSE,1536,864,TRUE,"chrome","118.0.0",FALSE,"Windows 10",TRUE,60.392,0.435281518100643,4,"The slider bars didn't work well, either with mouse of trackpad","",3.709,6.211,6.455,40.752,134.748,47.73,NA,NA,NA,NA,NA,NA,"$15,001 - $25,000",1099
"69","sub-017","2023-10-14","23:27:30","23:50:20","Strategy Forecast",1,"ARF1665","Distraction","57","86",15,30,102,15,15,11,23,20,18,32,20,12,2,"No",NA,"35","Female","Female","White or Caucasian","Single","17","Undergradaute degree (BA, BS, etc.)",FALSE,1920,1080,TRUE,"chrome","117.0.0",FALSE,"Windows 10",TRUE,61.008,0.27261694738222,4,"","",20.764,8.99,9.169,97.333,216.878,82.632,"63",1,3,18.361,32.406,15.94,"$35,001 - $50,000",1370
"70","sub-017","2023-10-14","23:27:30","23:50:20","Strategy Forecast",2,"CNL1892","Distraction","71","60",15,30,102,15,15,11,23,20,18,32,20,12,2,"No",NA,"35","Female","Female","White or Caucasian","Single","17","Undergradaute degree (BA, BS, etc.)",FALSE,1920,1080,TRUE,"chrome","117.0.0",FALSE,"Windows 10",TRUE,61.008,0.27261694738222,4,"","",5.903,6.501,8.01,97.333,216.878,82.632,"57",3,2,8.248,13.45,3.778,"$35,001 - $50,000",1370
"71","sub-017","2023-10-14","23:27:30","23:50:20","Strategy Forecast",3,"FGV3524","Distraction","59","57",15,30,102,15,15,11,23,20,18,32,20,12,2,"No",NA,"35","Female","Female","White or Caucasian","Single","17","Undergradaute degree (BA, BS, etc.)",FALSE,1920,1080,TRUE,"chrome","117.0.0",FALSE,"Windows 10",TRUE,61.008,0.27261694738222,4,"","",3.698,6.269,6.546,97.333,216.878,82.632,"58",2,2,7.016,3.077,10.075,"$35,001 - $50,000",1370
"72","sub-017","2023-10-14","23:27:30","23:50:20","Strategy Forecast",4,"HIU8424","Reappraisal","56","75",15,30,102,15,15,11,23,20,18,32,20,12,2,"No",NA,"35","Female","Female","White or Caucasian","Single","17","Undergradaute degree (BA, BS, etc.)",FALSE,1920,1080,TRUE,"chrome","117.0.0",FALSE,"Windows 10",TRUE,61.008,0.27261694738222,4,"","",4.892,3.514,5.45,97.333,216.878,82.632,"46",1,4,6.993,3.945,4.871,"$35,001 - $50,000",1370
"73","sub-018","2023-10-14","23:37:17","23:53:12","Strategy Use",1,"ARF1665","Distraction","11","79",14,26,52,1,9,8,20,4,10,10,8,2,4,"No",NA,"40","Male","Male","Asian","Married","19","Graduate degree (MA, MS, PhD, etc.)",FALSE,1920,1080,TRUE,"chrome","117.0.0",FALSE,"Windows 10",TRUE,60.578,0.399274341775178,4,"","",6.553,5.47,11.73,35.635,94.191,38.196,"64",4,3,8.12,6.291,3.287,"Over $150,000",955
"74","sub-018","2023-10-14","23:37:17","23:53:12","Strategy Use",2,"FGV3524","Neither","79","31",14,26,52,1,9,8,20,4,10,10,8,2,4,"No",NA,"40","Male","Male","Asian","Married","19","Graduate degree (MA, MS, PhD, etc.)",FALSE,1920,1080,TRUE,"chrome","117.0.0",FALSE,"Windows 10",TRUE,60.578,0.399274341775178,4,"","",3.871,9.39,6.766,35.635,94.191,38.196,NA,NA,NA,NA,NA,NA,"Over $150,000",955
"75","sub-018","2023-10-14","23:37:17","23:53:12","Strategy Use",3,"HIU8424","Reappraisal","32","71",14,26,52,1,9,8,20,4,10,10,8,2,4,"No",NA,"40","Male","Male","Asian","Married","19","Graduate degree (MA, MS, PhD, etc.)",FALSE,1920,1080,TRUE,"chrome","117.0.0",FALSE,"Windows 10",TRUE,60.578,0.399274341775178,4,"","",3.36,5.226,10.825,35.635,94.191,38.196,"59",3,3,5.438,5.587,2.539,"Over $150,000",955
"76","sub-018","2023-10-14","23:37:17","23:53:12","Strategy Use",4,"CNL1892","Neither","64","64",14,26,52,1,9,8,20,4,10,10,8,2,4,"No",NA,"40","Male","Male","Asian","Married","19","Graduate degree (MA, MS, PhD, etc.)",FALSE,1920,1080,TRUE,"chrome","117.0.0",FALSE,"Windows 10",TRUE,60.578,0.399274341775178,4,"","",2.336,3.678,10.955,35.635,94.191,38.196,NA,NA,NA,NA,NA,NA,"Over $150,000",955
"77","sub-019","2023-10-14","23:36:6","23:59:1","Strategy Use",1,"CNL1892","Neither","74","75",10,22,81,7,17,9,18,24,6,25,16,9,3,"No",NA,"39","Female","Female","White or Caucasian","Married","9","Some high school",FALSE,1536,864,TRUE,"chrome","117.0.0",FALSE,"Windows 10",TRUE,60.31,0.371214223865411,4,"","",8.703,10.439,6.488,100.671,147.67,63.606,NA,NA,NA,NA,NA,NA,"$15,001 - $25,000",1375
"78","sub-019","2023-10-14","23:36:6","23:59:1","Strategy Use",2,"ARF1665","Distraction","61","100",10,22,81,7,17,9,18,24,6,25,16,9,3,"No",NA,"39","Female","Female","White or Caucasian","Married","9","Some high school",FALSE,1536,864,TRUE,"chrome","117.0.0",FALSE,"Windows 10",TRUE,60.31,0.371214223865411,4,"","",4.262,7.911,9.956,100.671,147.67,63.606,"63",2,4,21.734,12.75,17.94,"$15,001 - $25,000",1375
"79","sub-019","2023-10-14","23:36:6","23:59:1","Strategy Use",3,"FGV3524","Neither","91","96",10,22,81,7,17,9,18,24,6,25,16,9,3,"No",NA,"39","Female","Female","White or Caucasian","Married","9","Some high school",FALSE,1536,864,TRUE,"chrome","117.0.0",FALSE,"Windows 10",TRUE,60.31,0.371214223865411,4,"","",6.963,3.519,5.198,100.671,147.67,63.606,NA,NA,NA,NA,NA,NA,"$15,001 - $25,000",1375
"80","sub-019","2023-10-14","23:36:6","23:59:1","Strategy Use",4,"HIU8424","Distraction","94","100",10,22,81,7,17,9,18,24,6,25,16,9,3,"No",NA,"39","Female","Female","White or Caucasian","Married","9","Some high school",FALSE,1536,864,TRUE,"chrome","117.0.0",FALSE,"Windows 10",TRUE,60.31,0.371214223865411,4,"","",3.358,4.408,4.022,100.671,147.67,63.606,"73",1,4,15.543,10.344,6.7,"$15,001 - $25,000",1375
"81","sub-020","2023-10-14","23:32:59","23:59:17","Strategy Use",1,"HIU8424","Reappraisal","10","70",7,29,64,10,9,8,20,9,8,17,11,6,0,"No",NA,"67","Female","Female","White or Caucasian","Widowed","14","Some college",FALSE,1536,864,TRUE,"chrome","118.0.0",FALSE,"Windows 10",TRUE,60.214,0.254813657404779,4,"the questions where I had to move the marker on the bar did not work well, I couldn't easily move the marker and had trouble continuing to the next page.","",12.401,11.406,14.1,108.339,172.05,61.703,"92",5,0,26.238,9.751,7.841,"$35,001 - $50,000",1578
"82","sub-020","2023-10-14","23:32:59","23:59:17","Strategy Use",2,"FGV3524","Reappraisal","29","58",7,29,64,10,9,8,20,9,8,17,11,6,0,"No",NA,"67","Female","Female","White or Caucasian","Widowed","14","Some college",FALSE,1536,864,TRUE,"chrome","118.0.0",FALSE,"Windows 10",TRUE,60.214,0.254813657404779,4,"the questions where I had to move the marker on the bar did not work well, I couldn't easily move the marker and had trouble continuing to the next page.","",9.704,23.984,24.621,108.339,172.05,61.703,"79",4,0,37.675,16.153,5.071,"$35,001 - $50,000",1578
"83","sub-020","2023-10-14","23:32:59","23:59:17","Strategy Use",3,"ARF1665","Reappraisal","27","38",7,29,64,10,9,8,20,9,8,17,11,6,0,"No",NA,"67","Female","Female","White or Caucasian","Widowed","14","Some college",FALSE,1536,864,TRUE,"chrome","118.0.0",FALSE,"Windows 10",TRUE,60.214,0.254813657404779,4,"the questions where I had to move the marker on the bar did not work well, I couldn't easily move the marker and had trouble continuing to the next page.","",6.969,35.436,25.329,108.339,172.05,61.703,"91",5,0,19.777,7.294,9.18,"$35,001 - $50,000",1578
"84","sub-020","2023-10-14","23:32:59","23:59:17","Strategy Use",4,"CNL1892","Neither","20","28",7,29,64,10,9,8,20,9,8,17,11,6,0,"No",NA,"67","Female","Female","White or Caucasian","Widowed","14","Some college",FALSE,1536,864,TRUE,"chrome","118.0.0",FALSE,"Windows 10",TRUE,60.214,0.254813657404779,4,"the questions where I had to move the marker on the bar did not work well, I couldn't easily move the marker and had trouble continuing to the next page.","",11.407,20.027,15.987,108.339,172.05,61.703,NA,NA,NA,NA,NA,NA,"$35,001 - $50,000",1578
"85","sub-021","2023-10-15","0:14:25","0:37:35","Strategy Forecast",1,"FGV3524","Reappraisal","0","3",10,24,75,11,15,5,13,19,12,17,13,4,3,"No",NA,"27","Female","Female","White or Caucasian","Single","17","Undergradaute degree (BA, BS, etc.)",FALSE,1680,1050,TRUE,"chrome","118.0.0",FALSE,"Mac OS",TRUE,60.346,0.283866165648532,4,"No difficulties once I was logged onto a desktop.","",21.225,11.372,30.487,68.564,144.071,53.449,"100",0,6,10.199,12.602,7.047," $100,001 - $150,000",1390
"86","sub-021","2023-10-15","0:14:25","0:37:35","Strategy Forecast",2,"ARF1665","Distraction","0","35",10,24,75,11,15,5,13,19,12,17,13,4,3,"No",NA,"27","Female","Female","White or Caucasian","Single","17","Undergradaute degree (BA, BS, etc.)",FALSE,1680,1050,TRUE,"chrome","118.0.0",FALSE,"Mac OS",TRUE,60.346,0.283866165648532,4,"No difficulties once I was logged onto a desktop.","",5.428,4.928,14.546,68.564,144.071,53.449,"75",3,4,8.552,5.358,3.729," $100,001 - $150,000",1390
"87","sub-021","2023-10-15","0:14:25","0:37:35","Strategy Forecast",3,"CNL1892","Distraction","10","11",10,24,75,11,15,5,13,19,12,17,13,4,3,"No",NA,"27","Female","Female","White or Caucasian","Single","17","Undergradaute degree (BA, BS, etc.)",FALSE,1680,1050,TRUE,"chrome","118.0.0",FALSE,"Mac OS",TRUE,60.346,0.283866165648532,4,"No difficulties once I was logged onto a desktop.","",8.813,9.867,20.339,68.564,144.071,53.449,"42",3,5,8.333,4.706,3.528," $100,001 - $150,000",1390
"88","sub-021","2023-10-15","0:14:25","0:37:35","Strategy Forecast",4,"HIU8424","Reappraisal","8","57",10,24,75,11,15,5,13,19,12,17,13,4,3,"No",NA,"27","Female","Female","White or Caucasian","Single","17","Undergradaute degree (BA, BS, etc.)",FALSE,1680,1050,TRUE,"chrome","118.0.0",FALSE,"Mac OS",TRUE,60.346,0.283866165648532,4,"No difficulties once I was logged onto a desktop.","",7.267,5.973,8.716,68.564,144.071,53.449,"28",5,2,12.827,4.045,5.877," $100,001 - $150,000",1390
"89","sub-022","2023-10-16","19:59:56","20:19:53","Strategy Use",1,"HIU8424","Neither","6","65",23,12,96,22,14,8,23,19,10,37,25,12,3,"No",NA,"22","Male","Male","White or Caucasian","Single","12","High school degree or GED",FALSE,1746,1092,TRUE,"chrome","117.0.0",FALSE,"Windows 10",TRUE,60.518,0.275263510113492,4,"","",6.877,6.02,14.29,54.589,130.802,56.833,NA,NA,NA,NA,NA,NA,"Under $15,000",1197
"90","sub-022","2023-10-16","19:59:56","20:19:53","Strategy Use",2,"CNL1892","Reappraisal","59","37",23,12,96,22,14,8,23,19,10,37,25,12,3,"No",NA,"22","Male","Male","White or Caucasian","Single","12","High school degree or GED",FALSE,1746,1092,TRUE,"chrome","117.0.0",FALSE,"Windows 10",TRUE,60.518,0.275263510113492,4,"","",4.278,6.717,9.168,54.589,130.802,56.833,"70",4,1,7.35,10.702,4.428,"Under $15,000",1197
"91","sub-022","2023-10-16","19:59:56","20:19:53","Strategy Use",3,"FGV3524","Reappraisal","35","15",23,12,96,22,14,8,23,19,10,37,25,12,3,"No",NA,"22","Male","Male","White or Caucasian","Single","12","High school degree or GED",FALSE,1746,1092,TRUE,"chrome","117.0.0",FALSE,"Windows 10",TRUE,60.518,0.275263510113492,4,"","",1.844,6.326,6.018,54.589,130.802,56.833,"99",0,0,12.598,2.751,2.045,"Under $15,000",1197
"92","sub-022","2023-10-16","19:59:56","20:19:53","Strategy Use",4,"ARF1665","Reappraisal","20","11",23,12,96,22,14,8,23,19,10,37,25,12,3,"No",NA,"22","Male","Male","White or Caucasian","Single","12","High school degree or GED",FALSE,1746,1092,TRUE,"chrome","117.0.0",FALSE,"Windows 10",TRUE,60.518,0.275263510113492,4,"","",2.741,5.861,7.15,54.589,130.802,56.833,"87",5,1,4.078,9.086,2.501,"Under $15,000",1197
"93","sub-023","2023-10-16","20:3:4","20:21:13","Strategy Use",1,"FGV3524","Neither","0","1",1,17,57,1,21,6,14,10,5,12,9,3,5,"No",NA,"26","Non-binary / Third gender","Female","Hispanic or Latino","Single","","Undergradaute degree (BA, BS, etc.)",FALSE,1440,900,TRUE,"chrome","116.0.0",FALSE,"Mac OS",TRUE,60.312,0.266589572189161,4,"","",5.757,19.745,13.453,61.373,107.521,66.612,NA,NA,NA,NA,NA,NA,"$35,001 - $50,000",1089
"94","sub-023","2023-10-16","20:3:4","20:21:13","Strategy Use",2,"HIU8424","Neither","0","56",1,17,57,1,21,6,14,10,5,12,9,3,5,"No",NA,"26","Non-binary / Third gender","Female","Hispanic or Latino","Single","","Undergradaute degree (BA, BS, etc.)",FALSE,1440,900,TRUE,"chrome","116.0.0",FALSE,"Mac OS",TRUE,60.312,0.266589572189161,4,"","",8.959,5.772,16.534,61.373,107.521,66.612,NA,NA,NA,NA,NA,NA,"$35,001 - $50,000",1089
"95","sub-023","2023-10-16","20:3:4","20:21:13","Strategy Use",3,"CNL1892","Reappraisal","42","59",1,17,57,1,21,6,14,10,5,12,9,3,5,"No",NA,"26","Non-binary / Third gender","Female","Hispanic or Latino","Single","","Undergradaute degree (BA, BS, etc.)",FALSE,1440,900,TRUE,"chrome","116.0.0",FALSE,"Mac OS",TRUE,60.312,0.266589572189161,4,"","",8.603,4.991,10.936,61.373,107.521,66.612,"72",2,4,8.909,11.946,3.782,"$35,001 - $50,000",1089
"96","sub-023","2023-10-16","20:3:4","20:21:13","Strategy Use",4,"ARF1665","Neither","56","80",1,17,57,1,21,6,14,10,5,12,9,3,5,"No",NA,"26","Non-binary / Third gender","Female","Hispanic or Latino","Single","","Undergradaute degree (BA, BS, etc.)",FALSE,1440,900,TRUE,"chrome","116.0.0",FALSE,"Mac OS",TRUE,60.312,0.266589572189161,4,"","",10.171,4.716,5.588,61.373,107.521,66.612,NA,NA,NA,NA,NA,NA,"$35,001 - $50,000",1089
"97","sub-024","2023-10-16","20:20:29","20:38:48","Strategy Use",1,"HIU8424","Reappraisal","5","79",9,24,50,3,10,4,22,5,6,16,13,3,0,"No",NA,"64","Male","Male","White or Caucasian","Single","19","Graduate degree (MA, MS, PhD, etc.)",FALSE,1280,720,TRUE,"chrome","118.0.0",FALSE,"Windows 10",TRUE,60.426,0.642907458348399,4,"","",8.579,9.887,6.315,78.125,129.465,60.012,"25",1,6,9.536,8.293,7.251,"$50,001 - $75,000",1099
"98","sub-024","2023-10-16","20:20:29","20:38:48","Strategy Use",2,"ARF1665","Reappraisal","11","95",9,24,50,3,10,4,22,5,6,16,13,3,0,"No",NA,"64","Male","Male","White or Caucasian","Single","19","Graduate degree (MA, MS, PhD, etc.)",FALSE,1280,720,TRUE,"chrome","118.0.0",FALSE,"Windows 10",TRUE,60.426,0.642907458348399,4,"","",3.485,8.224,5.464,78.125,129.465,60.012,"16",1,5,2.875,4.033,2.936,"$50,001 - $75,000",1099
"99","sub-024","2023-10-16","20:20:29","20:38:48","Strategy Use",3,"CNL1892","Neither","13","50",9,24,50,3,10,4,22,5,6,16,13,3,0,"No",NA,"64","Male","Male","White or Caucasian","Single","19","Graduate degree (MA, MS, PhD, etc.)",FALSE,1280,720,TRUE,"chrome","118.0.0",FALSE,"Windows 10",TRUE,60.426,0.642907458348399,4,"","",3.719,3.683,11.997,78.125,129.465,60.012,NA,NA,NA,NA,NA,NA,"$50,001 - $75,000",1099
"100","sub-024","2023-10-16","20:20:29","20:38:48","Strategy Use",4,"FGV3524","Neither","4","58",9,24,50,3,10,4,22,5,6,16,13,3,0,"No",NA,"64","Male","Male","White or Caucasian","Single","19","Graduate degree (MA, MS, PhD, etc.)",FALSE,1280,720,TRUE,"chrome","118.0.0",FALSE,"Windows 10",TRUE,60.426,0.642907458348399,4,"","",5.118,3.793,6.733,78.125,129.465,60.012,NA,NA,NA,NA,NA,NA,"$50,001 - $75,000",1099
"101","sub-025","2023-10-16","20:21:12","20:40:51","Strategy Forecast",1,"CNL1892","Reappraisal","10","40",20,27,48,3,7,2,23,3,10,17,15,2,0,"No",NA,"40","Male","Male","White or Caucasian","Single","15","Some college",FALSE,1280,720,TRUE,"chrome","117.0.0",FALSE,"Windows 10",TRUE,60.474,0.270795125510042,4,"None","No",13.914,11.24,20.605,62.666,124.924,52.78,"65",1,3,15.534,10.102,8.107," $100,001 - $150,000",1179
"102","sub-025","2023-10-16","20:21:12","20:40:51","Strategy Forecast",2,"HIU8424","Distraction","25","100",20,27,48,3,7,2,23,3,10,17,15,2,0,"No",NA,"40","Male","Male","White or Caucasian","Single","15","Some college",FALSE,1280,720,TRUE,"chrome","117.0.0",FALSE,"Windows 10",TRUE,60.474,0.270795125510042,4,"None","No",2.651,14.299,23.954,62.666,124.924,52.78,"88",1,2,5.51,6.991,5.404," $100,001 - $150,000",1179
"103","sub-025","2023-10-16","20:21:12","20:40:51","Strategy Forecast",3,"FGV3524","Reappraisal","92","40",20,27,48,3,7,2,23,3,10,17,15,2,0,"No",NA,"40","Male","Male","White or Caucasian","Single","15","Some college",FALSE,1280,720,TRUE,"chrome","117.0.0",FALSE,"Windows 10",TRUE,60.474,0.270795125510042,4,"None","No",2.811,11.724,13.585,62.666,124.924,52.78,"59",2,1,1.838,4.448,3.083," $100,001 - $150,000",1179
"104","sub-025","2023-10-16","20:21:12","20:40:51","Strategy Forecast",4,"ARF1665","Reappraisal","41","74",20,27,48,3,7,2,23,3,10,17,15,2,0,"No",NA,"40","Male","Male","White or Caucasian","Single","15","Some college",FALSE,1280,720,TRUE,"chrome","117.0.0",FALSE,"Windows 10",TRUE,60.474,0.270795125510042,4,"None","No",2.189,4.153,6.105,62.666,124.924,52.78,"77",3,3,2.445,1.935,1.796," $100,001 - $150,000",1179
"105","sub-026","2023-10-16","20:40:46","21:0:26","Strategy Use",1,"HIU8424","Reappraisal","22","85",10,22,50,4,10,3,19,8,6,11,9,2,0,"No",NA,"64","Female","Female","White or Caucasian","Married","17","Undergradaute degree (BA, BS, etc.)",FALSE,1470,920,TRUE,"chrome","117.0.0",FALSE,"Mac OS",TRUE,60.506,0.195012820091398,4,"","",9.495,31.024,27.114,57.165,115.745,47.027,"79",2,4,62.002,11.752,8.253,"$75,001 - $100,000",1180
"106","sub-026","2023-10-16","20:40:46","21:0:26","Strategy Use",2,"ARF1665","Reappraisal","22","75",10,22,50,4,10,3,19,8,6,11,9,2,0,"No",NA,"64","Female","Female","White or Caucasian","Married","17","Undergradaute degree (BA, BS, etc.)",FALSE,1470,920,TRUE,"chrome","117.0.0",FALSE,"Mac OS",TRUE,60.506,0.195012820091398,4,"","",3.897,10.926,5.615,57.165,115.745,47.027,"66",3,3,7.686,3.942,2.392,"$75,001 - $100,000",1180
"107","sub-026","2023-10-16","20:40:46","21:0:26","Strategy Use",3,"FGV3524","Neither","26","62",10,22,50,4,10,3,19,8,6,11,9,2,0,"No",NA,"64","Female","Female","White or Caucasian","Married","17","Undergradaute degree (BA, BS, etc.)",FALSE,1470,920,TRUE,"chrome","117.0.0",FALSE,"Mac OS",TRUE,60.506,0.195012820091398,4,"","",6.61,3.238,7.955,57.165,115.745,47.027,NA,NA,NA,NA,NA,NA,"$75,001 - $100,000",1180
"108","sub-026","2023-10-16","20:40:46","21:0:26","Strategy Use",4,"CNL1892","Neither","29","40",10,22,50,4,10,3,19,8,6,11,9,2,0,"No",NA,"64","Female","Female","White or Caucasian","Married","17","Undergradaute degree (BA, BS, etc.)",FALSE,1470,920,TRUE,"chrome","117.0.0",FALSE,"Mac OS",TRUE,60.506,0.195012820091398,4,"","",2.527,3.139,6.2,57.165,115.745,47.027,NA,NA,NA,NA,NA,NA,"$75,001 - $100,000",1180
"109","sub-027","2023-10-16","20:42:16","21:0:45","Strategy Use",1,"HIU8424","Neither","18","69",15,20,88,12,16,6,25,17,12,37,22,15,2,"No",NA,"30","Male","Male","Hispanic or Latino","Single","12","Some college",FALSE,1280,720,TRUE,"firefox","118.0.0",FALSE,"Windows 10",TRUE,60.876,0.33253571236786,4,"n/a","n/a",14.557,9.103,27.461,66.598,111.35,36.416,NA,NA,NA,NA,NA,NA,"$15,001 - $25,000",1109
"110","sub-027","2023-10-16","20:42:16","21:0:45","Strategy Use",2,"ARF1665","Neither","46","68",15,20,88,12,16,6,25,17,12,37,22,15,2,"No",NA,"30","Male","Male","Hispanic or Latino","Single","12","Some college",FALSE,1280,720,TRUE,"firefox","118.0.0",FALSE,"Windows 10",TRUE,60.876,0.33253571236786,4,"n/a","n/a",6.624,4.806,15.859,66.598,111.35,36.416,NA,NA,NA,NA,NA,NA,"$15,001 - $25,000",1109
"111","sub-027","2023-10-16","20:42:16","21:0:45","Strategy Use",3,"FGV3524","Distraction","26","26",15,20,88,12,16,6,25,17,12,37,22,15,2,"No",NA,"30","Male","Male","Hispanic or Latino","Single","12","Some college",FALSE,1280,720,TRUE,"firefox","118.0.0",FALSE,"Windows 10",TRUE,60.876,0.33253571236786,4,"n/a","n/a",6.932,17.167,6.551,66.598,111.35,36.416,"13",1,1,10.88,10.035,5.025,"$15,001 - $25,000",1109
"112","sub-027","2023-10-16","20:42:16","21:0:45","Strategy Use",4,"CNL1892","Neither","13","55",15,20,88,12,16,6,25,17,12,37,22,15,2,"No",NA,"30","Male","Male","Hispanic or Latino","Single","12","Some college",FALSE,1280,720,TRUE,"firefox","118.0.0",FALSE,"Windows 10",TRUE,60.876,0.33253571236786,4,"n/a","n/a",1.879,11.621,5.493,66.598,111.35,36.416,NA,NA,NA,NA,NA,NA,"$15,001 - $25,000",1109
"113","sub-028","2023-10-16","21:17:48","21:37:30","Strategy Forecast",1,"CNL1892","Reappraisal","52","81",9,21,45,0,6,7,20,7,5,27,16,11,0,"No",NA,"54","Female","Female","White or Caucasian","Married","16","Undergradaute degree (BA, BS, etc.)",FALSE,1366,768,TRUE,"firefox","101.0.0",FALSE,"Windows 10",TRUE,54.12,14.9930633961176,4,"","",10.979,12.362,6.956,87.137,178.8,46.394,"68",3,3,7.546,7.114,6.665,"$50,001 - $75,000",1182
"114","sub-028","2023-10-16","21:17:48","21:37:30","Strategy Forecast",2,"ARF1665","Reappraisal","59","78",9,21,45,0,6,7,20,7,5,27,16,11,0,"No",NA,"54","Female","Female","White or Caucasian","Married","16","Undergradaute degree (BA, BS, etc.)",FALSE,1366,768,TRUE,"firefox","101.0.0",FALSE,"Windows 10",TRUE,54.12,14.9930633961176,4,"","",7.49,4.103,7.29,87.137,178.8,46.394,"59",3,3,8.839,9.483,5.577,"$50,001 - $75,000",1182
"115","sub-028","2023-10-16","21:17:48","21:37:30","Strategy Forecast",3,"FGV3524","Distraction","73","71",9,21,45,0,6,7,20,7,5,27,16,11,0,"No",NA,"54","Female","Female","White or Caucasian","Married","16","Undergradaute degree (BA, BS, etc.)",FALSE,1366,768,TRUE,"firefox","101.0.0",FALSE,"Windows 10",TRUE,54.12,14.9930633961176,4,"","",4.111,3.772,6.962,87.137,178.8,46.394,"64",4,4,2.491,4.584,13.86,"$50,001 - $75,000",1182
"116","sub-028","2023-10-16","21:17:48","21:37:30","Strategy Forecast",4,"HIU8424","Distraction","66","89",9,21,45,0,6,7,20,7,5,27,16,11,0,"No",NA,"54","Female","Female","White or Caucasian","Married","16","Undergradaute degree (BA, BS, etc.)",FALSE,1366,768,TRUE,"firefox","101.0.0",FALSE,"Windows 10",TRUE,54.12,14.9930633961176,4,"","",6.784,3.963,12.317,87.137,178.8,46.394,"58",4,4,7.963,3.097,3.956,"$50,001 - $75,000",1182
"117","sub-029","2023-10-16","21:45:33","22:7:34","Strategy Use",1,"ARF1665","Reappraisal","9","70",10,23,90,17,15,11,18,20,9,31,19,12,3,"No",NA,"36","Male","Male","White or Caucasian","Married","14","Some college",FALSE,1440,900,TRUE,"chrome","87.0.4280",FALSE,"Mac OS",TRUE,60.674,0.597729035600581,4,"","",13.396,10.554,8.306,72.658,140.019,53.866,"65",4,4,12.221,18.3,10.665,"$75,001 - $100,000",1321
"118","sub-029","2023-10-16","21:45:33","22:7:34","Strategy Use",2,"CNL1892","Reappraisal","62","60",10,23,90,17,15,11,18,20,9,31,19,12,3,"No",NA,"36","Male","Male","White or Caucasian","Married","14","Some college",FALSE,1440,900,TRUE,"chrome","87.0.4280",FALSE,"Mac OS",TRUE,60.674,0.597729035600581,4,"","",5.757,12.389,17.52,72.658,140.019,53.866,"58",3,3,9.605,2.778,5.792,"$75,001 - $100,000",1321
"119","sub-029","2023-10-16","21:45:33","22:7:34","Strategy Use",3,"HIU8424","Distraction","51","70",10,23,90,17,15,11,18,20,9,31,19,12,3,"No",NA,"36","Male","Male","White or Caucasian","Married","14","Some college",FALSE,1440,900,TRUE,"chrome","87.0.4280",FALSE,"Mac OS",TRUE,60.674,0.597729035600581,4,"","",5.836,7.756,4.278,72.658,140.019,53.866,"66",5,4,9.123,5.334,2.122,"$75,001 - $100,000",1321
"120","sub-029","2023-10-16","21:45:33","22:7:34","Strategy Use",4,"FGV3524","Reappraisal","69","53",10,23,90,17,15,11,18,20,9,31,19,12,3,"No",NA,"36","Male","Male","White or Caucasian","Married","14","Some college",FALSE,1440,900,TRUE,"chrome","87.0.4280",FALSE,"Mac OS",TRUE,60.674,0.597729035600581,4,"","",3.521,3.537,4.855,72.658,140.019,53.866,"78",4,5,6.258,4.801,1.951,"$75,001 - $100,000",1321
"121","sub-030","2023-10-16","21:48:59","22:13:55","Strategy Forecast",1,"FGV3524","Reappraisal","0","0",4,12,38,2,6,2,13,10,5,31,22,9,5,"No",NA,"45","Male","Male","White or Caucasian","Single","16","Some college",FALSE,2560,1440,TRUE,"chrome","118.0.0",FALSE,"Windows 10",TRUE,145.252,0.406780038841625,4,"","",15.384,17.954,8.154,71.036,180.213,66.934,"75",6,0,30.931,25.248,8.975,"Prefer not to say",1496
"122","sub-030","2023-10-16","21:48:59","22:13:55","Strategy Forecast",2,"CNL1892","Distraction","0","1",4,12,38,2,6,2,13,10,5,31,22,9,5,"No",NA,"45","Male","Male","White or Caucasian","Single","16","Some college",FALSE,2560,1440,TRUE,"chrome","118.0.0",FALSE,"Windows 10",TRUE,145.252,0.406780038841625,4,"","",20.745,6.998,19.364,71.036,180.213,66.934,"50",5,2,10.652,9.845,11.459,"Prefer not to say",1496
"123","sub-030","2023-10-16","21:48:59","22:13:55","Strategy Forecast",3,"HIU8424","Distraction","0","10",4,12,38,2,6,2,13,10,5,31,22,9,5,"No",NA,"45","Male","Male","White or Caucasian","Single","16","Some college",FALSE,2560,1440,TRUE,"chrome","118.0.0",FALSE,"Windows 10",TRUE,145.252,0.406780038841625,4,"","",4.965,4.63,16.08,71.036,180.213,66.934,"50",3,4,10.676,9.934,9.299,"Prefer not to say",1496
"124","sub-030","2023-10-16","21:48:59","22:13:55","Strategy Forecast",4,"ARF1665","Distraction","1","15",4,12,38,2,6,2,13,10,5,31,22,9,5,"No",NA,"45","Male","Male","White or Caucasian","Single","16","Some college",FALSE,2560,1440,TRUE,"chrome","118.0.0",FALSE,"Windows 10",TRUE,145.252,0.406780038841625,4,"","",2.739,10.919,18.729,71.036,180.213,66.934,"20",2,5,21.645,10.99,17.837,"Prefer not to say",1496
"125","sub-031","2023-10-16","21:57:28","22:19:41","Strategy Use",1,"CNL1892","Reappraisal","50","60",24,36,80,13,10,5,25,12,15,36,19,17,0,"No",NA,"21","Female","Female","Hispanic or Latino","Single","13","High school degree or GED",FALSE,1280,720,TRUE,"chrome","118.0.0",FALSE,"Windows 10",TRUE,71.398,7.29151698893996,4,"nope","nope",15.749,13.812,10.513,87.443,226.648,56.007,"80",3,0,8.953,7.841,12.729,"Under $15,000",1333
"126","sub-031","2023-10-16","21:57:28","22:19:41","Strategy Use",2,"FGV3524","Reappraisal","54","61",24,36,80,13,10,5,25,12,15,36,19,17,0,"No",NA,"21","Female","Female","Hispanic or Latino","Single","13","High school degree or GED",FALSE,1280,720,TRUE,"chrome","118.0.0",FALSE,"Windows 10",TRUE,71.398,7.29151698893996,4,"nope","nope",2.359,8.3,6.672,87.443,226.648,56.007,"81",3,0,6.491,7.22,3.271,"Under $15,000",1333
"127","sub-031","2023-10-16","21:57:28","22:19:41","Strategy Use",3,"ARF1665","Reappraisal","55","67",24,36,80,13,10,5,25,12,15,36,19,17,0,"No",NA,"21","Female","Female","Hispanic or Latino","Single","13","High school degree or GED",FALSE,1280,720,TRUE,"chrome","118.0.0",FALSE,"Windows 10",TRUE,71.398,7.29151698893996,4,"nope","nope",2.472,7.879,6.826,87.443,226.648,56.007,"100",3,0,6.186,13.094,3.824,"Under $15,000",1333
"128","sub-031","2023-10-16","21:57:28","22:19:41","Strategy Use",4,"HIU8424","Reappraisal","60","69",24,36,80,13,10,5,25,12,15,36,19,17,0,"No",NA,"21","Female","Female","Hispanic or Latino","Single","13","High school degree or GED",FALSE,1280,720,TRUE,"chrome","118.0.0",FALSE,"Windows 10",TRUE,71.398,7.29151698893996,4,"nope","nope",2.47,3.114,9.058,87.443,226.648,56.007,"100",2,0,8.2,5.783,2.967,"Under $15,000",1333
"129","sub-032","2023-10-16","22:3:4","22:24:11","Strategy Forecast",1,"CNL1892","Distraction","15","10",6,29,51,1,10,8,17,8,7,13,9,4,5,"No",NA,"46","Male","Male","White or Caucasian","Single","12","Graduate degree (MA, MS, PhD, etc.)",FALSE,1366,768,TRUE,"chrome","118.0.0",FALSE,"Windows 10",TRUE,60.394,0.52089346319569,4,"","",21.663,17.924,24.174,78.107,155.685,60.39,"88",1,4,25.817,20.415,5.641,"$50,001 - $75,000",1267
"130","sub-032","2023-10-16","22:3:4","22:24:11","Strategy Forecast",2,"HIU8424","Reappraisal","8","65",6,29,51,1,10,8,17,8,7,13,9,4,5,"No",NA,"46","Male","Male","White or Caucasian","Single","12","Graduate degree (MA, MS, PhD, etc.)",FALSE,1366,768,TRUE,"chrome","118.0.0",FALSE,"Windows 10",TRUE,60.394,0.52089346319569,4,"","",10.229,6.159,9.478,78.107,155.685,60.39,"91",3,3,8.42,8.13,7.083,"$50,001 - $75,000",1267
"131","sub-032","2023-10-16","22:3:4","22:24:11","Strategy Forecast",3,"ARF1665","Reappraisal","9","10",6,29,51,1,10,8,17,8,7,13,9,4,5,"No",NA,"46","Male","Male","White or Caucasian","Single","12","Graduate degree (MA, MS, PhD, etc.)",FALSE,1366,768,TRUE,"chrome","118.0.0",FALSE,"Windows 10",TRUE,60.394,0.52089346319569,4,"","",5.196,7.813,13.233,78.107,155.685,60.39,"91",2,2,7.044,4.077,2.772,"$50,001 - $75,000",1267
"132","sub-032","2023-10-16","22:3:4","22:24:11","Strategy Forecast",4,"FGV3524","Neither","9","9",6,29,51,1,10,8,17,8,7,13,9,4,5,"No",NA,"46","Male","Male","White or Caucasian","Single","12","Graduate degree (MA, MS, PhD, etc.)",FALSE,1366,768,TRUE,"chrome","118.0.0",FALSE,"Windows 10",TRUE,60.394,0.52089346319569,4,"","",6.598,5.695,10.284,78.107,155.685,60.39,NA,NA,NA,NA,NA,NA,"$50,001 - $75,000",1267
"133","sub-033","2023-10-16","22:12:14","22:30:55","Strategy Forecast",1,"FGV3524","Reappraisal","6","40",21,11,107,21,17,6,21,32,10,40,23,17,3,"No",NA,"20","Male","Male","Asian","Single","15","Some college",FALSE,NA,NA,TRUE,"firefox","118.0.0",FALSE,"Windows 10",TRUE,60.942,0.446844491965606,4,"","",19.06,14.219,20.468,50.171,77.627,20.582,"66",4,3,17.753,7.728,4.256," $100,001 - $150,000",1121
"134","sub-033","2023-10-16","22:12:14","22:30:55","Strategy Forecast",2,"HIU8424","Distraction","31","78",21,11,107,21,17,6,21,32,10,40,23,17,3,"No",NA,"20","Male","Male","Asian","Single","15","Some college",FALSE,NA,NA,TRUE,"firefox","118.0.0",FALSE,"Windows 10",TRUE,60.942,0.446844491965606,4,"","",3.573,7.019,5.886,50.171,77.627,20.582,"36",1,5,6.331,3.713,2.874," $100,001 - $150,000",1121
"135","sub-033","2023-10-16","22:12:14","22:30:55","Strategy Forecast",3,"ARF1665","Distraction","67","73",21,11,107,21,17,6,21,32,10,40,23,17,3,"No",NA,"20","Male","Male","Asian","Single","15","Some college",FALSE,NA,NA,TRUE,"firefox","118.0.0",FALSE,"Windows 10",TRUE,60.942,0.446844491965606,4,"","",5.642,5.164,10.251,50.171,77.627,20.582,"76",3,2,8.931,2.465,4.521," $100,001 - $150,000",1121
"136","sub-033","2023-10-16","22:12:14","22:30:55","Strategy Forecast",4,"CNL1892","Neither","67","74",21,11,107,21,17,6,21,32,10,40,23,17,3,"No",NA,"20","Male","Male","Asian","Single","15","Some college",FALSE,NA,NA,TRUE,"firefox","118.0.0",FALSE,"Windows 10",TRUE,60.942,0.446844491965606,4,"","",4.009,7.194,6.82,50.171,77.627,20.582,NA,NA,NA,NA,NA,NA," $100,001 - $150,000",1121
"139","sub-034","2023-10-16","22:9:46","22:31:33","Strategy Use",3,"CNL1892","Reappraisal","65","70",16,20,64,8,9,3,26,7,11,30,19,11,2,"Yes","FGV3524 ARF1665","27","Male","Male","Hispanic or Latino White or Caucasian","Single","17","Undergradaute degree (BA, BS, etc.)",FALSE,1366,768,TRUE,"chrome","117.0.0",FALSE,"Windows 10",TRUE,60.734,0.299799933288851,4,"No issues or confusion at all.","No, but thank you very much for the study!",3.939,26.413,8.958,80.284,130.3,30.059,"74",5,2,9.089,5.654,2.981,"$50,001 - $75,000",1307
"140","sub-034","2023-10-16","22:9:46","22:31:33","Strategy Use",4,"HIU8424","Distraction","70","90",16,20,64,8,9,3,26,7,11,30,19,11,2,"Yes","FGV3524 ARF1665","27","Male","Male","Hispanic or Latino White or Caucasian","Single","17","Undergradaute degree (BA, BS, etc.)",FALSE,1366,768,TRUE,"chrome","117.0.0",FALSE,"Windows 10",TRUE,60.734,0.299799933288851,4,"No issues or confusion at all.","No, but thank you very much for the study!",2.364,9.376,11.937,80.284,130.3,30.059,"25",3,5,12.533,15.669,10.291,"$50,001 - $75,000",1307
"141","sub-035","2023-10-16","22:18:18","22:34:55","Strategy Use",1,"CNL1892","Neither","0","75",17,21,103,17,20,12,25,19,10,36,23,13,3,"No",NA,"26","Male","Male","White or Caucasian","Single","15","Vocational / technical / trade training",FALSE,1280,720,TRUE,"chrome","118.0.0",FALSE,"Windows 10",TRUE,60.522,0.337446292022894,4,"","",11.42,7.364,9.132,43.186,79.415,24.463,NA,NA,NA,NA,NA,NA,"$15,001 - $25,000",997
"142","sub-035","2023-10-16","22:18:18","22:34:55","Strategy Use",2,"FGV3524","Neither","25","65",17,21,103,17,20,12,25,19,10,36,23,13,3,"No",NA,"26","Male","Male","White or Caucasian","Single","15","Vocational / technical / trade training",FALSE,1280,720,TRUE,"chrome","118.0.0",FALSE,"Windows 10",TRUE,60.522,0.337446292022894,4,"","",2.017,9.216,12.322,43.186,79.415,24.463,NA,NA,NA,NA,NA,NA,"$15,001 - $25,000",997
"143","sub-035","2023-10-16","22:18:18","22:34:55","Strategy Use",3,"ARF1665","Reappraisal","20","80",17,21,103,17,20,12,25,19,10,36,23,13,3,"No",NA,"26","Male","Male","White or Caucasian","Single","15","Vocational / technical / trade training",FALSE,1280,720,TRUE,"chrome","118.0.0",FALSE,"Windows 10",TRUE,60.522,0.337446292022894,4,"","",4.873,8.321,6.451,43.186,79.415,24.463,"56",2,3,8.173,8.333,5.415,"$15,001 - $25,000",997
"144","sub-035","2023-10-16","22:18:18","22:34:55","Strategy Use",4,"HIU8424","Distraction","35","85",17,21,103,17,20,12,25,19,10,36,23,13,3,"No",NA,"26","Male","Male","White or Caucasian","Single","15","Vocational / technical / trade training",FALSE,1280,720,TRUE,"chrome","118.0.0",FALSE,"Windows 10",TRUE,60.522,0.337446292022894,4,"","",5.157,10.205,9.363,43.186,79.415,24.463,"29",3,1,5.124,4.264,3.611,"$15,001 - $25,000",997
"145","sub-036","2023-10-16","22:14:58","22:35:10","Strategy Forecast",1,"HIU8424","Reappraisal","22","96",8,25,80,10,12,10,24,13,11,22,14,8,4,"No",NA,"23","Female","Female","Asian","Single","12","Undergradaute degree (BA, BS, etc.)",FALSE,1440,900,TRUE,"chrome","116.0.0",FALSE,"Mac OS",TRUE,60.532,0.390346000363781,4,"","",16.146,12.003,9.845,53.17,121.686,54.389,"61",1,2,9.857,15.212,10.2,"$35,001 - $50,000",1212
"146","sub-036","2023-10-16","22:14:58","22:35:10","Strategy Forecast",2,"CNL1892","Reappraisal","34","56",8,25,80,10,12,10,24,13,11,22,14,8,4,"No",NA,"23","Female","Female","Asian","Single","12","Undergradaute degree (BA, BS, etc.)",FALSE,1440,900,TRUE,"chrome","116.0.0",FALSE,"Mac OS",TRUE,60.532,0.390346000363781,4,"","",15.036,9.333,6.899,53.17,121.686,54.389,"72",2,2,17.715,4.181,4.007,"$35,001 - $50,000",1212
"147","sub-036","2023-10-16","22:14:58","22:35:10","Strategy Forecast",3,"FGV3524","Distraction","31","55",8,25,80,10,12,10,24,13,11,22,14,8,4,"No",NA,"23","Female","Female","Asian","Single","12","Undergradaute degree (BA, BS, etc.)",FALSE,1440,900,TRUE,"chrome","116.0.0",FALSE,"Mac OS",TRUE,60.532,0.390346000363781,4,"","",1.947,5.975,7.486,53.17,121.686,54.389,"71",2,1,11.425,13.276,5.709,"$35,001 - $50,000",1212
"148","sub-036","2023-10-16","22:14:58","22:35:10","Strategy Forecast",4,"ARF1665","Reappraisal","31","81",8,25,80,10,12,10,24,13,11,22,14,8,4,"No",NA,"23","Female","Female","Asian","Single","12","Undergradaute degree (BA, BS, etc.)",FALSE,1440,900,TRUE,"chrome","116.0.0",FALSE,"Mac OS",TRUE,60.532,0.390346000363781,4,"","",2.997,5.061,9.584,53.17,121.686,54.389,"68",2,2,6.733,3.011,2.109,"$35,001 - $50,000",1212
"149","sub-037","2023-10-16","22:16:42","22:37:41","Strategy Forecast",1,"FGV3524","Reappraisal","11","18",7,24,37,1,6,2,19,3,6,6,6,0,2,"No",NA,"53","Female","Female","White or Caucasian","Divorced","19","Graduate degree (MA, MS, PhD, etc.)",FALSE,1600,900,TRUE,"chrome","118.0.0",FALSE,"Windows 10",TRUE,60.73,0.210356839679627,4,"","",18.725,6.8,11.866,84.19,136.978,50.76,"19",1,5,17.407,12.438,7.908,"$50,001 - $75,000",1259
"150","sub-037","2023-10-16","22:16:42","22:37:41","Strategy Forecast",2,"ARF1665","Distraction","11","62",7,24,37,1,6,2,19,3,6,6,6,0,2,"No",NA,"53","Female","Female","White or Caucasian","Divorced","19","Graduate degree (MA, MS, PhD, etc.)",FALSE,1600,900,TRUE,"chrome","118.0.0",FALSE,"Windows 10",TRUE,60.73,0.210356839679627,4,"","",6.605,10.184,8.943,84.19,136.978,50.76,"62",2,3,15.647,9.375,6.365,"$50,001 - $75,000",1259
"151","sub-037","2023-10-16","22:16:42","22:37:41","Strategy Forecast",3,"HIU8424","Distraction","26","78",7,24,37,1,6,2,19,3,6,6,6,0,2,"No",NA,"53","Female","Female","White or Caucasian","Divorced","19","Graduate degree (MA, MS, PhD, etc.)",FALSE,1600,900,TRUE,"chrome","118.0.0",FALSE,"Windows 10",TRUE,60.73,0.210356839679627,4,"","",13.725,7.524,11.231,84.19,136.978,50.76,"82",3,5,11.391,6.264,5.797,"$50,001 - $75,000",1259
"152","sub-037","2023-10-16","22:16:42","22:37:41","Strategy Forecast",4,"CNL1892","Reappraisal","39","24",7,24,37,1,6,2,19,3,6,6,6,0,2,"No",NA,"53","Female","Female","White or Caucasian","Divorced","19","Graduate degree (MA, MS, PhD, etc.)",FALSE,1600,900,TRUE,"chrome","118.0.0",FALSE,"Windows 10",TRUE,60.73,0.210356839679627,4,"","",5.941,5.563,10.364,84.19,136.978,50.76,"65",1,4,15.999,5.471,5.261,"$50,001 - $75,000",1259
"153","sub-038","2023-10-16","22:14:18","22:38:7","Strategy Use",1,"HIU8424","Reappraisal","0","5",3,24,54,0,16,8,20,6,4,25,19,6,0,"No",NA,"43","Male","Male","Asian","Single","16","Undergradaute degree (BA, BS, etc.)",FALSE,2133,NA,TRUE,"chrome","118.0.0",FALSE,"Windows 10",TRUE,64.512,0.346078025884337,4,"","",16.539,22.578,26.95,58.288,109.553,37.162,"94",6,0,22.785,13.833,5.954,"$50,001 - $75,000",1429
"154","sub-038","2023-10-16","22:14:18","22:38:7","Strategy Use",2,"CNL1892","Reappraisal","0","2",3,24,54,0,16,8,20,6,4,25,19,6,0,"No",NA,"43","Male","Male","Asian","Single","16","Undergradaute degree (BA, BS, etc.)",FALSE,2133,NA,TRUE,"chrome","118.0.0",FALSE,"Windows 10",TRUE,64.512,0.346078025884337,4,"","",9.538,15.17,22.212,58.288,109.553,37.162,"95",6,0,20.824,3.449,2.32,"$50,001 - $75,000",1429
"155","sub-038","2023-10-16","22:14:18","22:38:7","Strategy Use",3,"FGV3524","Reappraisal","0","15",3,24,54,0,16,8,20,6,4,25,19,6,0,"No",NA,"43","Male","Male","Asian","Single","16","Undergradaute degree (BA, BS, etc.)",FALSE,2133,NA,TRUE,"chrome","118.0.0",FALSE,"Windows 10",TRUE,64.512,0.346078025884337,4,"","",5.102,5.468,18.863,58.288,109.553,37.162,"90",6,0,16.24,3.199,3.157,"$50,001 - $75,000",1429
"156","sub-038","2023-10-16","22:14:18","22:38:7","Strategy Use",4,"ARF1665","Reappraisal","0","5",3,24,54,0,16,8,20,6,4,25,19,6,0,"No",NA,"43","Male","Male","Asian","Single","16","Undergradaute degree (BA, BS, etc.)",FALSE,2133,NA,TRUE,"chrome","118.0.0",FALSE,"Windows 10",TRUE,64.512,0.346078025884337,4,"","",2.463,15.697,13.071,58.288,109.553,37.162,"94",6,0,11.206,2.865,2.588,"$50,001 - $75,000",1429
"157","sub-039","2023-10-16","22:23:21","22:40:40","Strategy Use",1,"HIU8424","Neither","30","30",15,17,70,1,15,3,24,20,7,21,10,11,1,"No",NA,"34","Male","Male","White or Caucasian","Single","12","High school degree or GED",FALSE,1920,1080,TRUE,"firefox","118.0.0",FALSE,"Linux",TRUE,76.322,0.835445988679101,4,"","",12.025,20.064,8.404,56.665,138.542,44.467,NA,NA,NA,NA,NA,NA,"Prefer not to say",1039
"158","sub-039","2023-10-16","22:23:21","22:40:40","Strategy Use",2,"ARF1665","Neither","30","30",15,17,70,1,15,3,24,20,7,21,10,11,1,"No",NA,"34","Male","Male","White or Caucasian","Single","12","High school degree or GED",FALSE,1920,1080,TRUE,"firefox","118.0.0",FALSE,"Linux",TRUE,76.322,0.835445988679101,4,"","",2.76,6.908,5.609,56.665,138.542,44.467,NA,NA,NA,NA,NA,NA,"Prefer not to say",1039
"159","sub-039","2023-10-16","22:23:21","22:40:40","Strategy Use",3,"CNL1892","Neither","30","30",15,17,70,1,15,3,24,20,7,21,10,11,1,"No",NA,"34","Male","Male","White or Caucasian","Single","12","High school degree or GED",FALSE,1920,1080,TRUE,"firefox","118.0.0",FALSE,"Linux",TRUE,76.322,0.835445988679101,4,"","",2.511,6.084,5.947,56.665,138.542,44.467,NA,NA,NA,NA,NA,NA,"Prefer not to say",1039
"160","sub-039","2023-10-16","22:23:21","22:40:40","Strategy Use",4,"FGV3524","Neither","30","30",15,17,70,1,15,3,24,20,7,21,10,11,1,"No",NA,"34","Male","Male","White or Caucasian","Single","12","High school degree or GED",FALSE,1920,1080,TRUE,"firefox","118.0.0",FALSE,"Linux",TRUE,76.322,0.835445988679101,4,"","",3.473,19.661,12.525,56.665,138.542,44.467,NA,NA,NA,NA,NA,NA,"Prefer not to say",1039
"161","sub-040","2023-10-16","22:17:58","22:43:56","Strategy Use",1,"ARF1665","Neither","0","10",15,26,44,3,6,2,19,7,7,22,15,7,5,"No",NA,"44","Female","Female","Black or African American","Married","13","High school degree or GED",FALSE,1280,800,TRUE,"chrome","116.0.0",FALSE,"Mac OS",TRUE,60.294,0.237444730411099,4,"","Thank you!",10.577,21.227,19.291,84.994,180.614,75.314,NA,NA,NA,NA,NA,NA,"$75,001 - $100,000",1558
"162","sub-040","2023-10-16","22:17:58","22:43:56","Strategy Use",2,"FGV3524","Neither","0","30",15,26,44,3,6,2,19,7,7,22,15,7,5,"No",NA,"44","Female","Female","Black or African American","Married","13","High school degree or GED",FALSE,1280,800,TRUE,"chrome","116.0.0",FALSE,"Mac OS",TRUE,60.294,0.237444730411099,4,"","Thank you!",2.916,8.033,13.319,84.994,180.614,75.314,NA,NA,NA,NA,NA,NA,"$75,001 - $100,000",1558
"163","sub-040","2023-10-16","22:17:58","22:43:56","Strategy Use",3,"HIU8424","Distraction","0","50",15,26,44,3,6,2,19,7,7,22,15,7,5,"No",NA,"44","Female","Female","Black or African American","Married","13","High school degree or GED",FALSE,1280,800,TRUE,"chrome","116.0.0",FALSE,"Mac OS",TRUE,60.294,0.237444730411099,4,"","Thank you!",6.067,5.895,22.54,84.994,180.614,75.314,"26",4,3,14.831,11.416,8.513,"$75,001 - $100,000",1558
"164","sub-040","2023-10-16","22:17:58","22:43:56","Strategy Use",4,"CNL1892","Distraction","10","51",15,26,44,3,6,2,19,7,7,22,15,7,5,"No",NA,"44","Female","Female","Black or African American","Married","13","High school degree or GED",FALSE,1280,800,TRUE,"chrome","116.0.0",FALSE,"Mac OS",TRUE,60.294,0.237444730411099,4,"","Thank you!",12.545,4.55,23.049,84.994,180.614,75.314,"40",3,3,8.966,3.102,3.995,"$75,001 - $100,000",1558
"165","sub-041","2023-10-16","22:33:1","22:49:28","Strategy Use",1,"ARF1665","Neither","84","58",4,15,42,0,7,3,20,8,4,5,4,1,6,"No",NA,"50","Male","Male","White or Caucasian","Married","14","Some college",FALSE,1396,785,TRUE,"chrome","103.0.0",FALSE,"Chrome OS",TRUE,60.802,0.395562890069328,4,"","",4.148,7.9,10.798,42.692,89.486,38.885,NA,NA,NA,NA,NA,NA,"$75,001 - $100,000",987
"166","sub-041","2023-10-16","22:33:1","22:49:28","Strategy Use",2,"CNL1892","Neither","68","72",4,15,42,0,7,3,20,8,4,5,4,1,6,"No",NA,"50","Male","Male","White or Caucasian","Married","14","Some college",FALSE,1396,785,TRUE,"chrome","103.0.0",FALSE,"Chrome OS",TRUE,60.802,0.395562890069328,4,"","",4.788,6.059,9.37,42.692,89.486,38.885,NA,NA,NA,NA,NA,NA,"$75,001 - $100,000",987
"167","sub-041","2023-10-16","22:33:1","22:49:28","Strategy Use",3,"FGV3524","Distraction","63","68",4,15,42,0,7,3,20,8,4,5,4,1,6,"No",NA,"50","Male","Male","White or Caucasian","Married","14","Some college",FALSE,1396,785,TRUE,"chrome","103.0.0",FALSE,"Chrome OS",TRUE,60.802,0.395562890069328,4,"","",3.599,4.475,6.959,42.692,89.486,38.885,"79",5,1,29.62,8.525,4.513,"$75,001 - $100,000",987
"168","sub-041","2023-10-16","22:33:1","22:49:28","Strategy Use",4,"HIU8424","Reappraisal","62","79",4,15,42,0,7,3,20,8,4,5,4,1,6,"No",NA,"50","Male","Male","White or Caucasian","Married","14","Some college",FALSE,1396,785,TRUE,"chrome","103.0.0",FALSE,"Chrome OS",TRUE,60.802,0.395562890069328,4,"","",4.911,4.874,12.006,42.692,89.486,38.885,"77",6,0,29.024,4.862,3.823,"$75,001 - $100,000",987
"169","sub-042","2023-10-16","22:41:17","23:0:44","Strategy Use",1,"FGV3524","Neither","10","50",11,26,63,14,11,7,16,7,8,13,11,2,0,"No",NA,"34","Male","Male","White or Caucasian","Single","16","Undergradaute degree (BA, BS, etc.)",FALSE,2560,1440,TRUE,"firefox","118.0.0",FALSE,"Windows 10",TRUE,167.52,1.73254148579479,4,"","",9.778,8.989,20.827,43.469,112.447,39.462,NA,NA,NA,NA,NA,NA,"Over $150,000",1167
"170","sub-042","2023-10-16","22:41:17","23:0:44","Strategy Use",2,"CNL1892","Reappraisal","25","85",11,26,63,14,11,7,16,7,8,13,11,2,0,"No",NA,"34","Male","Male","White or Caucasian","Single","16","Undergradaute degree (BA, BS, etc.)",FALSE,2560,1440,TRUE,"firefox","118.0.0",FALSE,"Windows 10",TRUE,167.52,1.73254148579479,4,"","",5.05,13.242,11.954,43.469,112.447,39.462,"19",3,2,12.744,8.873,14.903,"Over $150,000",1167
"171","sub-042","2023-10-16","22:41:17","23:0:44","Strategy Use",3,"ARF1665","Reappraisal","55","25",11,26,63,14,11,7,16,7,8,13,11,2,0,"No",NA,"34","Male","Male","White or Caucasian","Single","16","Undergradaute degree (BA, BS, etc.)",FALSE,2560,1440,TRUE,"firefox","118.0.0",FALSE,"Windows 10",TRUE,167.52,1.73254148579479,4,"","",9.412,12.671,63.289,43.469,112.447,39.462,"94",5,0,4.899,5.807,2.161,"Over $150,000",1167
"172","sub-042","2023-10-16","22:41:17","23:0:44","Strategy Use",4,"HIU8424","Reappraisal","13","94",11,26,63,14,11,7,16,7,8,13,11,2,0,"No",NA,"34","Male","Male","White or Caucasian","Single","16","Undergradaute degree (BA, BS, etc.)",FALSE,2560,1440,TRUE,"firefox","118.0.0",FALSE,"Windows 10",TRUE,167.52,1.73254148579479,4,"","",5.257,3.689,7.051,43.469,112.447,39.462,"31",4,4,8.36,5.601,5.639,"Over $150,000",1167
"173","sub-043","2023-10-16","22:37:52","23:3:13","Strategy Forecast",1,"ARF1665","Distraction","20","65",11,26,55,2,17,7,12,12,5,26,15,11,6,"No",NA,"53","Male","Male","White or Caucasian","Single","14","Some college",FALSE,1920,1080,TRUE,"firefox","115.0.0",FALSE,"Windows 8.1",TRUE,60.916,0.483663105890867,4,"","",9.736,10.221,18.925,107.932,172.261,77.995,"75",1,2,19.347,15.14,29.573,"$25,001 - $35,000",1521
"174","sub-043","2023-10-16","22:37:52","23:3:13","Strategy Forecast",2,"HIU8424","Distraction","40","70",11,26,55,2,17,7,12,12,5,26,15,11,6,"No",NA,"53","Male","Male","White or Caucasian","Single","14","Some college",FALSE,1920,1080,TRUE,"firefox","115.0.0",FALSE,"Windows 8.1",TRUE,60.916,0.483663105890867,4,"","",13.309,10.198,40.124,107.932,172.261,77.995,"60",3,2,10.316,9.696,6.144,"$25,001 - $35,000",1521
"175","sub-043","2023-10-16","22:37:52","23:3:13","Strategy Forecast",3,"FGV3524","Reappraisal","55","52",11,26,55,2,17,7,12,12,5,26,15,11,6,"No",NA,"53","Male","Male","White or Caucasian","Single","14","Some college",FALSE,1920,1080,TRUE,"firefox","115.0.0",FALSE,"Windows 8.1",TRUE,60.916,0.483663105890867,4,"","",6.704,9.752,13.624,107.932,172.261,77.995,"80",3,1,10.961,5.133,7.55,"$25,001 - $35,000",1521
"176","sub-043","2023-10-16","22:37:52","23:3:13","Strategy Forecast",4,"CNL1892","Distraction","52","58",11,26,55,2,17,7,12,12,5,26,15,11,6,"No",NA,"53","Male","Male","White or Caucasian","Single","14","Some college",FALSE,1920,1080,TRUE,"firefox","115.0.0",FALSE,"Windows 8.1",TRUE,60.916,0.483663105890867,4,"","",10.932,6.226,10.647,107.932,172.261,77.995,"60",2,1,10.816,5.45,4.265,"$25,001 - $35,000",1521
"178","sub-044","2023-10-16","22:44:43","23:9:7","Strategy Forecast",2,"CNL1892","Reappraisal","10","0",15,35,49,6,7,6,16,5,9,28,19,9,6,"Yes","FGV3524 HIU8424","48","Female","Female","Black or African American","Married","14","Some college",FALSE,1536,864,TRUE,"firefox","118.0.0",FALSE,"Windows 10",TRUE,145.006,1.18432681300391,4,"","",12.212,14.79,24.628,57.184,149.553,72.447,"60",3,3,6.167,4.719,4.447,"$35,001 - $50,000",1464
"180","sub-044","2023-10-16","22:44:43","23:9:7","Strategy Forecast",4,"ARF1665","Reappraisal","25","40",15,35,49,6,7,6,16,5,9,28,19,9,6,"Yes","FGV3524 HIU8424","48","Female","Female","Black or African American","Married","14","Some college",FALSE,1536,864,TRUE,"firefox","118.0.0",FALSE,"Windows 10",TRUE,145.006,1.18432681300391,4,"","",11.911,12.88,8.358,57.184,149.553,72.447,"26",4,1,8.959,4.617,2.28,"$35,001 - $50,000",1464
"181","sub-045","2023-10-16","23:11:11","23:35:32","Strategy Use",1,"HIU8424","Distraction","3","80",15,28,93,11,15,16,20,18,13,30,18,12,5,"No",NA,"26","Female","Female","White or Caucasian","Single","17","Some college",FALSE,1440,900,TRUE,"chrome","117.0.0",FALSE,"Mac OS",TRUE,30.146,0.0684105255059482,4,"none","none",3.807,6.282,6.134,27.203,61.765,13.681,"68",4,NA,5.713,2.438,121.273,"Under $15,000",1461
"182","sub-045","2023-10-16","23:11:11","23:35:32","Strategy Use",2,"FGV3524","Distraction","36","60",15,28,93,11,15,16,20,18,13,30,18,12,5,"No",NA,"26","Female","Female","White or Caucasian","Single","17","Some college",FALSE,1440,900,TRUE,"chrome","117.0.0",FALSE,"Mac OS",TRUE,30.146,0.0684105255059482,4,"none","none",2.252,7.799,67.02,27.203,61.765,13.681,"41",3,4,54.867,1.63,1.233,"Under $15,000",1461
"183","sub-045","2023-10-16","23:11:11","23:35:32","Strategy Use",3,"CNL1892","Distraction","28","83",15,28,93,11,15,16,20,18,13,30,18,12,5,"No",NA,"26","Female","Female","White or Caucasian","Single","17","Some college",FALSE,1440,900,TRUE,"chrome","117.0.0",FALSE,"Mac OS",TRUE,30.146,0.0684105255059482,4,"none","none",1.242,3.014,4.966,27.203,61.765,13.681,"62",2,4,2.511,1.866,1.319,"Under $15,000",1461
"184","sub-045","2023-10-16","23:11:11","23:35:32","Strategy Use",4,"ARF1665","Reappraisal","65","100",15,28,93,11,15,16,20,18,13,30,18,12,5,"No",NA,"26","Female","Female","White or Caucasian","Single","17","Some college",FALSE,1440,900,TRUE,"chrome","117.0.0",FALSE,"Mac OS",TRUE,30.146,0.0684105255059482,4,"none","none",1.571,2.774,4.992,27.203,61.765,13.681,"78",4,4,247.776,3.16,9.126,"Under $15,000",1461
"185","sub-046","2023-10-16","23:32:56","23:51:6","Strategy Forecast",1,"CNL1892","Distraction","64","75",11,25,82,11,11,10,25,15,10,21,13,8,2,"No",NA,"22","Male","Male","Asian","Single","17","Some college",FALSE,1536,864,TRUE,"chrome","116.0.0",FALSE,"Windows 10",TRUE,60.228,0.290465144208389,4,"","",13.829,4.705,30.06,45.957,74.887,16.383,"39",2,0,13.825,5.036,4.943,"$50,001 - $75,000",1090
"186","sub-046","2023-10-16","23:32:56","23:51:6","Strategy Forecast",2,"ARF1665","Distraction","60","80",11,25,82,11,11,10,25,15,10,21,13,8,2,"No",NA,"22","Male","Male","Asian","Single","17","Some college",FALSE,1536,864,TRUE,"chrome","116.0.0",FALSE,"Windows 10",TRUE,60.228,0.290465144208389,4,"","",7.73,8.412,25.991,45.957,74.887,16.383,"66",0,4,5.364,7.19,4.658,"$50,001 - $75,000",1090
"187","sub-046","2023-10-16","23:32:56","23:51:6","Strategy Forecast",3,"HIU8424","Distraction","70","85",11,25,82,11,11,10,25,15,10,21,13,8,2,"No",NA,"22","Male","Male","Asian","Single","17","Some college",FALSE,1536,864,TRUE,"chrome","116.0.0",FALSE,"Windows 10",TRUE,60.228,0.290465144208389,4,"","",6.933,6.347,24.289,45.957,74.887,16.383,"41",4,3,5.905,9.46,2.261,"$50,001 - $75,000",1090
"188","sub-046","2023-10-16","23:32:56","23:51:6","Strategy Forecast",4,"FGV3524","Reappraisal","62","79",11,25,82,11,11,10,25,15,10,21,13,8,2,"No",NA,"22","Male","Male","Asian","Single","17","Some college",FALSE,1536,864,TRUE,"chrome","116.0.0",FALSE,"Windows 10",TRUE,60.228,0.290465144208389,4,"","",3.958,5.467,27.422,45.957,74.887,16.383,"65",2,4,5.176,2.084,3.205,"$50,001 - $75,000",1090
"189","sub-047","2023-10-16","23:30:25","23:53:35","Strategy Forecast",1,"ARF1665","Neither","2","10",15,24,78,12,9,4,21,18,14,29,18,11,4,"No",NA,"26","Female","Female","White or Caucasian","Single","17","Undergradaute degree (BA, BS, etc.)",FALSE,1440,900,TRUE,"safari","14.0.0",FALSE,"Mac OS",TRUE,60.144,0.226892044814269,4,"no","no",15.849,26.048,27.397,100.296,127.785,59.21,NA,NA,NA,NA,NA,NA," $100,001 - $150,000",1390
"190","sub-047","2023-10-16","23:30:25","23:53:35","Strategy Forecast",2,"HIU8424","Reappraisal","10","30",15,24,78,12,9,4,21,18,14,29,18,11,4,"No",NA,"26","Female","Female","White or Caucasian","Single","17","Undergradaute degree (BA, BS, etc.)",FALSE,1440,900,TRUE,"safari","14.0.0",FALSE,"Mac OS",TRUE,60.144,0.226892044814269,4,"no","no",14.316,5.142,15.377,100.296,127.785,59.21,"25",4,2,16.487,20.124,11.66," $100,001 - $150,000",1390
"191","sub-047","2023-10-16","23:30:25","23:53:35","Strategy Forecast",3,"FGV3524","Distraction","28","70",15,24,78,12,9,4,21,18,14,29,18,11,4,"No",NA,"26","Female","Female","White or Caucasian","Single","17","Undergradaute degree (BA, BS, etc.)",FALSE,1440,900,TRUE,"safari","14.0.0",FALSE,"Mac OS",TRUE,60.144,0.226892044814269,4,"no","no",5.539,20.208,20.058,100.296,127.785,59.21,"15",1,4,12.929,8.37,8.363," $100,001 - $150,000",1390
"192","sub-047","2023-10-16","23:30:25","23:53:35","Strategy Forecast",4,"CNL1892","Reappraisal","66","55",15,24,78,12,9,4,21,18,14,29,18,11,4,"No",NA,"26","Female","Female","White or Caucasian","Single","17","Undergradaute degree (BA, BS, etc.)",FALSE,1440,900,TRUE,"safari","14.0.0",FALSE,"Mac OS",TRUE,60.144,0.226892044814269,4,"no","no",19.185,14.421,19.503,100.296,127.785,59.21,"80",5,0,7.835,13.427,5.213," $100,001 - $150,000",1390
"193","sub-048","2023-10-16","23:40:8","23:57:5","Strategy Use",1,"CNL1892","Neither","0","5",12,23,24,0,3,2,13,2,4,5,3,2,0,"No",NA,"31","Male","Male","White or Caucasian","Single","16","Vocational / technical / trade training",FALSE,1536,864,TRUE,"chrome","118.0.0",FALSE,"Windows 10",TRUE,60.29,0.337934904974317,4,"No","No",5.149,10.915,20.24,48.484,108.363,52.194,NA,NA,NA,NA,NA,NA,"$50,001 - $75,000",1017
"194","sub-048","2023-10-16","23:40:8","23:57:5","Strategy Use",2,"FGV3524","Neither","0","0",12,23,24,0,3,2,13,2,4,5,3,2,0,"No",NA,"31","Male","Male","White or Caucasian","Single","16","Vocational / technical / trade training",FALSE,1536,864,TRUE,"chrome","118.0.0",FALSE,"Windows 10",TRUE,60.29,0.337934904974317,4,"No","No",2.433,6.353,6.7,48.484,108.363,52.194,NA,NA,NA,NA,NA,NA,"$50,001 - $75,000",1017
"195","sub-048","2023-10-16","23:40:8","23:57:5","Strategy Use",3,"ARF1665","Reappraisal","0","5",12,23,24,0,3,2,13,2,4,5,3,2,0,"No",NA,"31","Male","Male","White or Caucasian","Single","16","Vocational / technical / trade training",FALSE,1536,864,TRUE,"chrome","118.0.0",FALSE,"Windows 10",TRUE,60.29,0.337934904974317,4,"No","No",5.977,3.142,11.407,48.484,108.363,52.194,"30",6,1,14.728,11.735,8.152,"$50,001 - $75,000",1017
"196","sub-048","2023-10-16","23:40:8","23:57:5","Strategy Use",4,"HIU8424","Neither","2","15",12,23,24,0,3,2,13,2,4,5,3,2,0,"No",NA,"31","Male","Male","White or Caucasian","Single","16","Vocational / technical / trade training",FALSE,1536,864,TRUE,"chrome","118.0.0",FALSE,"Windows 10",TRUE,60.29,0.337934904974317,4,"No","No",3.501,6.078,9.522,48.484,108.363,52.194,NA,NA,NA,NA,NA,NA,"$50,001 - $75,000",1017
"197","sub-049","2023-10-16","23:40:27","23:58:6","Strategy Forecast",1,"CNL1892","Reappraisal","1","21",13,30,40,0,7,3,17,4,9,9,5,4,6,"No",NA,"29","Male","Male","White or Caucasian","Married","16","Undergradaute degree (BA, BS, etc.)",FALSE,2560,1440,TRUE,"firefox","118.0.0",FALSE,"Windows 10",TRUE,145.144,0.953797672465178,4,"","",15.59,8.62,11.934,50.217,119.613,53.36,"29",2,2,10.62,7.217,5.516,"$75,001 - $100,000",1059
"198","sub-049","2023-10-16","23:40:27","23:58:6","Strategy Forecast",2,"FGV3524","Reappraisal","2","29",13,30,40,0,7,3,17,4,9,9,5,4,6,"No",NA,"29","Male","Male","White or Caucasian","Married","16","Undergradaute degree (BA, BS, etc.)",FALSE,2560,1440,TRUE,"firefox","118.0.0",FALSE,"Windows 10",TRUE,145.144,0.953797672465178,4,"","",3.945,10.276,6.014,50.217,119.613,53.36,"80",1,4,7.192,4.711,3.196,"$75,001 - $100,000",1059
"199","sub-049","2023-10-16","23:40:27","23:58:6","Strategy Forecast",3,"ARF1665","Distraction","5","22",13,30,40,0,7,3,17,4,9,9,5,4,6,"No",NA,"29","Male","Male","White or Caucasian","Married","16","Undergradaute degree (BA, BS, etc.)",FALSE,2560,1440,TRUE,"firefox","118.0.0",FALSE,"Windows 10",TRUE,145.144,0.953797672465178,4,"","",3.448,5.354,6.3,50.217,119.613,53.36,"65",3,3,4.483,2.408,2.591,"$75,001 - $100,000",1059
"200","sub-049","2023-10-16","23:40:27","23:58:6","Strategy Forecast",4,"HIU8424","Distraction","2","72",13,30,40,0,7,3,17,4,9,9,5,4,6,"No",NA,"29","Male","Male","White or Caucasian","Married","16","Undergradaute degree (BA, BS, etc.)",FALSE,2560,1440,TRUE,"firefox","118.0.0",FALSE,"Windows 10",TRUE,145.144,0.953797672465178,4,"","",3.244,4.041,5.267,50.217,119.613,53.36,"10",4,1,4.868,3.649,1.768,"$75,001 - $100,000",1059
"201","sub-050","2023-10-17","23:41:50","0:1:46","Strategy Forecast",1,"HIU8424","Distraction","7","27",12,15,60,5,9,9,13,14,10,22,13,9,3,"No",NA,"26","Male","Male","White or Caucasian","Single","14","Some college",FALSE,2560,1440,TRUE,"chrome","117.0.0",FALSE,"Windows 10",TRUE,60.344,0.320124975595471,4,"","",32.987,14.771,13.925,100.059,121.195,37.531,"33",5,4,11.686,10.254,8.854,"$75,001 - $100,000",1196
"202","sub-050","2023-10-17","23:41:50","0:1:46","Strategy Forecast",2,"CNL1892","Reappraisal","25","23",12,15,60,5,9,9,13,14,10,22,13,9,3,"No",NA,"26","Male","Male","White or Caucasian","Single","14","Some college",FALSE,2560,1440,TRUE,"chrome","117.0.0",FALSE,"Windows 10",TRUE,60.344,0.320124975595471,4,"","",8.711,7.495,10.011,100.059,121.195,37.531,"55",4,3,10.572,8.644,3.773,"$75,001 - $100,000",1196
"203","sub-050","2023-10-17","23:41:50","0:1:46","Strategy Forecast",3,"FGV3524","Reappraisal","22","16",12,15,60,5,9,9,13,14,10,22,13,9,3,"No",NA,"26","Male","Male","White or Caucasian","Single","14","Some college",FALSE,2560,1440,TRUE,"chrome","117.0.0",FALSE,"Windows 10",TRUE,60.344,0.320124975595471,4,"","",14.253,3.37,11.482,100.059,121.195,37.531,"92",6,1,10.682,4.816,3.14,"$75,001 - $100,000",1196
"204","sub-050","2023-10-17","23:41:50","0:1:46","Strategy Forecast",4,"ARF1665","Distraction","10","21",12,15,60,5,9,9,13,14,10,22,13,9,3,"No",NA,"26","Male","Male","White or Caucasian","Single","14","Some college",FALSE,2560,1440,TRUE,"chrome","117.0.0",FALSE,"Windows 10",TRUE,60.344,0.320124975595471,4,"","",5.164,5.096,10.629,100.059,121.195,37.531,"52",4,4,7.784,4.21,1.857,"$75,001 - $100,000",1196
"205","sub-051","2023-10-17","23:33:6","0:6:18","Strategy Forecast",1,"HIU8424","Distraction","21","90",11,24,96,18,17,10,25,17,9,34,22,12,6,"No",NA,"43","Female","Female","White or Caucasian","Married","14","Vocational / technical / trade training",FALSE,1300,731,TRUE,"chrome","117.0.0",FALSE,"Chrome OS",TRUE,61.114,0.481591112874812,4,"","",15.742,23.864,18.342,95.911,207.689,96.746,"66",0,6,24.718,33.957,20.755,"$15,001 - $25,000",1992
"206","sub-051","2023-10-17","23:33:6","0:6:18","Strategy Forecast",2,"ARF1665","Reappraisal","54","75",11,24,96,18,17,10,25,17,9,34,22,12,6,"No",NA,"43","Female","Female","White or Caucasian","Married","14","Vocational / technical / trade training",FALSE,1300,731,TRUE,"chrome","117.0.0",FALSE,"Chrome OS",TRUE,61.114,0.481591112874812,4,"","",22.025,17.708,12.442,95.911,207.689,96.746,"77",2,6,6.987,15.045,8.469,"$15,001 - $25,000",1992
"207","sub-051","2023-10-17","23:33:6","0:6:18","Strategy Forecast",3,"FGV3524","Reappraisal","56","62",11,24,96,18,17,10,25,17,9,34,22,12,6,"No",NA,"43","Female","Female","White or Caucasian","Married","14","Vocational / technical / trade training",FALSE,1300,731,TRUE,"chrome","117.0.0",FALSE,"Chrome OS",TRUE,61.114,0.481591112874812,4,"","",10.896,35.196,18.058,95.911,207.689,96.746,"85",2,6,8.427,6.139,5.037,"$15,001 - $25,000",1992
"208","sub-051","2023-10-17","23:33:6","0:6:18","Strategy Forecast",4,"CNL1892","Distraction","48","70",11,24,96,18,17,10,25,17,9,34,22,12,6,"No",NA,"43","Female","Female","White or Caucasian","Married","14","Vocational / technical / trade training",FALSE,1300,731,TRUE,"chrome","117.0.0",FALSE,"Chrome OS",TRUE,61.114,0.481591112874812,4,"","",6.156,8.681,17.63,95.911,207.689,96.746,"81",0,6,6.434,7.308,4.679,"$15,001 - $25,000",1992
"209","sub-052","2023-10-17","0:14:31","0:37:17","Strategy Forecast",1,"FGV3524","Reappraisal","9","25",4,24,99,18,18,10,20,26,7,41,22,19,5,"No",NA,"33","Female","Female","White or Caucasian","Single","12","High school degree or GED",FALSE,1600,900,TRUE,"chrome","117.0.0",FALSE,"Windows 10",TRUE,60.538,0.269202525991119,4,"","",9.988,5.48,12.158,21.247,76.975,25.885,"75",2,4,9.227,8.746,6.27,"$50,001 - $75,000",1366
"210","sub-052","2023-10-17","0:14:31","0:37:17","Strategy Forecast",2,"HIU8424","Distraction","25","65",4,24,99,18,18,10,20,26,7,41,22,19,5,"No",NA,"33","Female","Female","White or Caucasian","Single","12","High school degree or GED",FALSE,1600,900,TRUE,"chrome","117.0.0",FALSE,"Windows 10",TRUE,60.538,0.269202525991119,4,"","",4.23,449.008,6.636,21.247,76.975,25.885,"60",5,3,4.507,3.259,4.342,"$50,001 - $75,000",1366
"211","sub-052","2023-10-17","0:14:31","0:37:17","Strategy Forecast",3,"CNL1892","Reappraisal","65","55",4,24,99,18,18,10,20,26,7,41,22,19,5,"No",NA,"33","Female","Female","White or Caucasian","Single","12","High school degree or GED",FALSE,1600,900,TRUE,"chrome","117.0.0",FALSE,"Windows 10",TRUE,60.538,0.269202525991119,4,"","",3.33,5.796,8.964,21.247,76.975,25.885,"63",2,5,23.143,3.779,3.09,"$50,001 - $75,000",1366
"212","sub-052","2023-10-17","0:14:31","0:37:17","Strategy Forecast",4,"ARF1665","Reappraisal","56","60",4,24,99,18,18,10,20,26,7,41,22,19,5,"No",NA,"33","Female","Female","White or Caucasian","Single","12","High school degree or GED",FALSE,1600,900,TRUE,"chrome","117.0.0",FALSE,"Windows 10",TRUE,60.538,0.269202525991119,4,"","",2.914,7.652,7.51,21.247,76.975,25.885,"80",2,4,6.255,4.048,3.85,"$50,001 - $75,000",1366
"213","sub-053","2023-10-17","0:17:58","0:41:31","Strategy Forecast",1,"HIU8424","Distraction","0","73",15,26,130,20,19,20,26,28,17,31,16,15,5,"No",NA,"21","Female","Female","White or Caucasian","Single","15","Some college",FALSE,1536,864,TRUE,"firefox","118.0.0",FALSE,"Windows 10",TRUE,60.928,0.48152881533715,4,"no","no",22.213,10.715,11.106,84.171,135.168,57.917,"80",4,4,14.405,49.494,5.755," $100,001 - $150,000",1413
"214","sub-053","2023-10-17","0:17:58","0:41:31","Strategy Forecast",2,"FGV3524","Neither","16","55",15,26,130,20,19,20,26,28,17,31,16,15,5,"No",NA,"21","Female","Female","White or Caucasian","Single","15","Some college",FALSE,1536,864,TRUE,"firefox","118.0.0",FALSE,"Windows 10",TRUE,60.928,0.48152881533715,4,"no","no",8.833,7.209,8.201,84.171,135.168,57.917,NA,NA,NA,NA,NA,NA," $100,001 - $150,000",1413
"215","sub-053","2023-10-17","0:17:58","0:41:31","Strategy Forecast",3,"CNL1892","Distraction","8","59",15,26,130,20,19,20,26,28,17,31,16,15,5,"No",NA,"21","Female","Female","White or Caucasian","Single","15","Some college",FALSE,1536,864,TRUE,"firefox","118.0.0",FALSE,"Windows 10",TRUE,60.928,0.48152881533715,4,"no","no",7.871,10.026,11.961,84.171,135.168,57.917,"70",3,2,12.249,4.06,3.455," $100,001 - $150,000",1413
"216","sub-053","2023-10-17","0:17:58","0:41:31","Strategy Forecast",4,"ARF1665","Neither","20","57",15,26,130,20,19,20,26,28,17,31,16,15,5,"No",NA,"21","Female","Female","White or Caucasian","Single","15","Some college",FALSE,1536,864,TRUE,"firefox","118.0.0",FALSE,"Windows 10",TRUE,60.928,0.48152881533715,4,"no","no",4.432,13.177,8.623,84.171,135.168,57.917,NA,NA,NA,NA,NA,NA," $100,001 - $150,000",1413
"217","sub-054","2023-10-17","1:12:21","1:27:59","Strategy Use",1,"CNL1892","Neither","52","78",21,23,107,19,18,12,21,25,12,34,21,13,6,"No",NA,"39","Female","Female","Black or African American","Single","16","Undergradaute degree (BA, BS, etc.)",FALSE,1366,768,TRUE,"chrome","117.0.0",FALSE,"Windows 10",TRUE,60.806,0.349471028842163,4,"","",3.757,17.185,6.06,33.186,84.71,32.314,NA,NA,NA,NA,NA,NA,"$50,001 - $75,000",938
"218","sub-054","2023-10-17","1:12:21","1:27:59","Strategy Use",2,"FGV3524","Neither","62","70",21,23,107,19,18,12,21,25,12,34,21,13,6,"No",NA,"39","Female","Female","Black or African American","Single","16","Undergradaute degree (BA, BS, etc.)",FALSE,1366,768,TRUE,"chrome","117.0.0",FALSE,"Windows 10",TRUE,60.806,0.349471028842163,4,"","",2.427,10.203,7.888,33.186,84.71,32.314,NA,NA,NA,NA,NA,NA,"$50,001 - $75,000",938
"219","sub-054","2023-10-17","1:12:21","1:27:59","Strategy Use",3,"ARF1665","Neither","60","55",21,23,107,19,18,12,21,25,12,34,21,13,6,"No",NA,"39","Female","Female","Black or African American","Single","16","Undergradaute degree (BA, BS, etc.)",FALSE,1366,768,TRUE,"chrome","117.0.0",FALSE,"Windows 10",TRUE,60.806,0.349471028842163,4,"","",2.957,4.719,9.679,33.186,84.71,32.314,NA,NA,NA,NA,NA,NA,"$50,001 - $75,000",938
"220","sub-054","2023-10-17","1:12:21","1:27:59","Strategy Use",4,"HIU8424","Neither","55","60",21,23,107,19,18,12,21,25,12,34,21,13,6,"No",NA,"39","Female","Female","Black or African American","Single","16","Undergradaute degree (BA, BS, etc.)",FALSE,1366,768,TRUE,"chrome","117.0.0",FALSE,"Windows 10",TRUE,60.806,0.349471028842163,4,"","",5.269,6.301,5.806,33.186,84.71,32.314,NA,NA,NA,NA,NA,NA,"$50,001 - $75,000",938
"221","sub-055","2023-10-17","1:13:43","1:32:6","Strategy Use",1,"FGV3524","Neither","0","5",19,21,57,2,10,3,24,10,8,21,12,9,0,"No",NA,"42","Male","Male","White or Caucasian","Single","14","Some college",FALSE,1920,1080,TRUE,"chrome","117.0.0",FALSE,"Windows 10",TRUE,60.592,0.371577717308237,4,"none","",6.4,7.87,9.58,90.165,108.946,49.757,NA,NA,NA,NA,NA,NA,"$25,001 - $35,000",1103
"222","sub-055","2023-10-17","1:13:43","1:32:6","Strategy Use",2,"ARF1665","Neither","0","17",19,21,57,2,10,3,24,10,8,21,12,9,0,"No",NA,"42","Male","Male","White or Caucasian","Single","14","Some college",FALSE,1920,1080,TRUE,"chrome","117.0.0",FALSE,"Windows 10",TRUE,60.592,0.371577717308237,4,"none","",2.414,5.926,7.934,90.165,108.946,49.757,NA,NA,NA,NA,NA,NA,"$25,001 - $35,000",1103
"223","sub-055","2023-10-17","1:13:43","1:32:6","Strategy Use",3,"CNL1892","Reappraisal","11","29",19,21,57,2,10,3,24,10,8,21,12,9,0,"No",NA,"42","Male","Male","White or Caucasian","Single","14","Some college",FALSE,1920,1080,TRUE,"chrome","117.0.0",FALSE,"Windows 10",TRUE,60.592,0.371577717308237,4,"none","",4.086,3.848,5.408,90.165,108.946,49.757,"39",3,1,6.604,8.45,6.314,"$25,001 - $35,000",1103
"224","sub-055","2023-10-17","1:13:43","1:32:6","Strategy Use",4,"HIU8424","Distraction","28","45",19,21,57,2,10,3,24,10,8,21,12,9,0,"No",NA,"42","Male","Male","White or Caucasian","Single","14","Some college",FALSE,1920,1080,TRUE,"chrome","117.0.0",FALSE,"Windows 10",TRUE,60.592,0.371577717308237,4,"none","",3.887,2.848,4.77,90.165,108.946,49.757,"30",5,0,5.966,4.617,3.855,"$25,001 - $35,000",1103
"225","sub-056","2023-10-17","1:13:44","1:33:33","Strategy Use",1,"ARF1665","Reappraisal","0","4",16,29,60,5,12,4,21,12,6,3,3,0,6,"No",NA,"39","Female","Female","White or Caucasian","Divorced","13","High school degree or GED",FALSE,NA,NA,TRUE,"firefox","118.0.0",FALSE,"Windows 10",TRUE,60.958,0.795311259822216,4,"no","no",13.511,6.791,12.468,61.787,108.507,37.938,"85",1,5,9.236,15.306,4.299,"$75,001 - $100,000",1189
"226","sub-056","2023-10-17","1:13:44","1:33:33","Strategy Use",2,"FGV3524","Neither","4","4",16,29,60,5,12,4,21,12,6,3,3,0,6,"No",NA,"39","Female","Female","White or Caucasian","Divorced","13","High school degree or GED",FALSE,NA,NA,TRUE,"firefox","118.0.0",FALSE,"Windows 10",TRUE,60.958,0.795311259822216,4,"no","no",4.04,4.493,7.091,61.787,108.507,37.938,NA,NA,NA,NA,NA,NA,"$75,001 - $100,000",1189
"227","sub-056","2023-10-17","1:13:44","1:33:33","Strategy Use",3,"HIU8424","Reappraisal","4","10",16,29,60,5,12,4,21,12,6,3,3,0,6,"No",NA,"39","Female","Female","White or Caucasian","Divorced","13","High school degree or GED",FALSE,NA,NA,TRUE,"firefox","118.0.0",FALSE,"Windows 10",TRUE,60.958,0.795311259822216,4,"no","no",5.114,3.984,7.354,61.787,108.507,37.938,"90",1,5,7.393,2.986,2.76,"$75,001 - $100,000",1189
"228","sub-056","2023-10-17","1:13:44","1:33:33","Strategy Use",4,"CNL1892","Neither","10","6",16,29,60,5,12,4,21,12,6,3,3,0,6,"No",NA,"39","Female","Female","White or Caucasian","Divorced","13","High school degree or GED",FALSE,NA,NA,TRUE,"firefox","118.0.0",FALSE,"Windows 10",TRUE,60.958,0.795311259822216,4,"no","no",3.167,4.582,6.148,61.787,108.507,37.938,NA,NA,NA,NA,NA,NA,"$75,001 - $100,000",1189
"229","sub-057","2023-10-17","1:12:49","1:38:14","Strategy Use",1,"ARF1665","Neither","4","14",14,22,65,9,8,9,19,13,7,8,6,2,6,"No",NA,"25","Male","Male","Black or African American","Married","13","Some college",FALSE,1366,768,TRUE,"chrome","103.0.0",FALSE,"Chrome OS",TRUE,61.058,0.204499388752142,4,"None","",16.538,31.528,23.533,108.325,215.037,66.349,NA,NA,NA,NA,NA,NA,"Under $15,000",1525
"230","sub-057","2023-10-17","1:12:49","1:38:14","Strategy Use",2,"FGV3524","Reappraisal","14","7",14,22,65,9,8,9,19,13,7,8,6,2,6,"No",NA,"25","Male","Male","Black or African American","Married","13","Some college",FALSE,1366,768,TRUE,"chrome","103.0.0",FALSE,"Chrome OS",TRUE,61.058,0.204499388752142,4,"None","",9.317,15.986,8.346,108.325,215.037,66.349,"14",4,2,16.929,7.075,5.406,"Under $15,000",1525
"231","sub-057","2023-10-17","1:12:49","1:38:14","Strategy Use",3,"CNL1892","Neither","7","7",14,22,65,9,8,9,19,13,7,8,6,2,6,"No",NA,"25","Male","Male","Black or African American","Married","13","Some college",FALSE,1366,768,TRUE,"chrome","103.0.0",FALSE,"Chrome OS",TRUE,61.058,0.204499388752142,4,"None","",33.522,8.328,17.599,108.325,215.037,66.349,NA,NA,NA,NA,NA,NA,"Under $15,000",1525
"232","sub-057","2023-10-17","1:12:49","1:38:14","Strategy Use",4,"HIU8424","Neither","7","10",14,22,65,9,8,9,19,13,7,8,6,2,6,"No",NA,"25","Male","Male","Black or African American","Married","13","Some college",FALSE,1366,768,TRUE,"chrome","103.0.0",FALSE,"Chrome OS",TRUE,61.058,0.204499388752142,4,"None","",3.645,18.947,14.384,108.325,215.037,66.349,NA,NA,NA,NA,NA,NA,"Under $15,000",1525
"233","sub-058","2023-10-17","1:20:4","1:41:12","Strategy Forecast",1,"ARF1665","Distraction","18","70",11,25,67,12,10,5,20,11,9,18,12,6,5,"No",NA,"33","Male","Male","White or Caucasian","Single","15","Vocational / technical / trade training",FALSE,1280,960,TRUE,"firefox","118.0.0",FALSE,"Windows 10",TRUE,60.868,0.642277198723418,4,"","",26.277,7.483,16.715,47.159,161.963,49.366,"74",1,2,8.925,18.266,10.534,"Under $15,000",1268
"234","sub-058","2023-10-17","1:20:4","1:41:12","Strategy Forecast",2,"HIU8424","Reappraisal","50","55",11,25,67,12,10,5,20,11,9,18,12,6,5,"No",NA,"33","Male","Male","White or Caucasian","Single","15","Vocational / technical / trade training",FALSE,1280,960,TRUE,"firefox","118.0.0",FALSE,"Windows 10",TRUE,60.868,0.642277198723418,4,"","",10.698,8.7,7.154,47.159,161.963,49.366,"34",3,2,13.237,9.377,6.444,"Under $15,000",1268
"235","sub-058","2023-10-17","1:20:4","1:41:12","Strategy Forecast",3,"FGV3524","Distraction","45","48",11,25,67,12,10,5,20,11,9,18,12,6,5,"No",NA,"33","Male","Male","White or Caucasian","Single","15","Vocational / technical / trade training",FALSE,1280,960,TRUE,"firefox","118.0.0",FALSE,"Windows 10",TRUE,60.868,0.642277198723418,4,"","",9.362,6.639,7.559,47.159,161.963,49.366,"65",1,4,5.319,5.129,3.378,"Under $15,000",1268
"236","sub-058","2023-10-17","1:20:4","1:41:12","Strategy Forecast",4,"CNL1892","Neither","39","45",11,25,67,12,10,5,20,11,9,18,12,6,5,"No",NA,"33","Male","Male","White or Caucasian","Single","15","Vocational / technical / trade training",FALSE,1280,960,TRUE,"firefox","118.0.0",FALSE,"Windows 10",TRUE,60.868,0.642277198723418,4,"","",6.77,4.081,7.834,47.159,161.963,49.366,NA,NA,NA,NA,NA,NA,"Under $15,000",1268
"238","sub-059","2023-10-17","1:17:54","1:42:17","Strategy Forecast",2,"ARF1665","Distraction","3","20",22,31,85,24,3,5,25,19,9,36,24,12,6,"Yes","FGV3524","33","Female","Female","White or Caucasian","Single","12","High school degree or GED",FALSE,1708,960,TRUE,"firefox","115.0.0",FALSE,"Windows 8.1",TRUE,61.026,0.190078930973425,4,"","",4.4,8.33,19.026,47.747,119.23,47.058,"75",5,6,6.152,3.306,3.481,"Under $15,000",1463
"239","sub-059","2023-10-17","1:17:54","1:42:17","Strategy Forecast",3,"CNL1892","Reappraisal","0","2",22,31,85,24,3,5,25,19,9,36,24,12,6,"Yes","FGV3524","33","Female","Female","White or Caucasian","Single","12","High school degree or GED",FALSE,1708,960,TRUE,"firefox","115.0.0",FALSE,"Windows 8.1",TRUE,61.026,0.190078930973425,4,"","",9.421,7.088,12.569,47.747,119.23,47.058,"70",4,3,2.791,3.199,4.762,"Under $15,000",1463
"240","sub-059","2023-10-17","1:17:54","1:42:17","Strategy Forecast",4,"HIU8424","Distraction","0","68",22,31,85,24,3,5,25,19,9,36,24,12,6,"Yes","FGV3524","33","Female","Female","White or Caucasian","Single","12","High school degree or GED",FALSE,1708,960,TRUE,"firefox","115.0.0",FALSE,"Windows 8.1",TRUE,61.026,0.190078930973425,4,"","",3.35,8.302,7.519,47.747,119.23,47.058,"98",6,6,3.617,3.379,2.955,"Under $15,000",1463
"241","sub-060","2023-10-17","1:14:24","1:43:57","Strategy Use",1,"ARF1665","Reappraisal","3","35",5,32,52,5,14,4,13,9,7,30,23,7,6,"Yes","FGV3524","40","Male","Male","White or Caucasian","Single","19","Graduate degree (MA, MS, PhD, etc.)",FALSE,1920,1080,TRUE,"chrome","118.0.0",FALSE,"Mac OS",TRUE,60.48,0.315753068076939,4,"","",22.229,14.853,28.564,124.915,200.915,71.584,"40",5,1,42.844,15.547,9.88,"$50,001 - $75,000",1773
"242","sub-060","2023-10-17","1:14:24","1:43:57","Strategy Use",2,"HIU8424","Neither","7","39",5,32,52,5,14,4,13,9,7,30,23,7,6,"Yes","FGV3524","40","Male","Male","White or Caucasian","Single","19","Graduate degree (MA, MS, PhD, etc.)",FALSE,1920,1080,TRUE,"chrome","118.0.0",FALSE,"Mac OS",TRUE,60.48,0.315753068076939,4,"","",9.065,7.91,14.691,124.915,200.915,71.584,NA,NA,NA,NA,NA,NA,"$50,001 - $75,000",1773
"243","sub-060","2023-10-17","1:14:24","1:43:57","Strategy Use",3,"CNL1892","Neither","12","22",5,32,52,5,14,4,13,9,7,30,23,7,6,"Yes","FGV3524","40","Male","Male","White or Caucasian","Single","19","Graduate degree (MA, MS, PhD, etc.)",FALSE,1920,1080,TRUE,"chrome","118.0.0",FALSE,"Mac OS",TRUE,60.48,0.315753068076939,4,"","",7.46,12.158,17.496,124.915,200.915,71.584,NA,NA,NA,NA,NA,NA,"$50,001 - $75,000",1773
